AccX1,AccY1,AccZ1,GyrX1,GyrY1,GyrZ1,AccX2,AccY2,AccZ2,GyrX2,GyrY2,GyrZ2,AccX3,AccY3,AccZ3,GyrX3,GyrY3,GyrZ3,AccX4,AccY4,AccZ4,GyrX4,GyrY4,GyrZ4,AccX5,AccY5,AccZ5,GyrX5,GyrY5,GyrZ5,AccX6,AccY6,AccZ6,GyrX6,GyrY6,GyrZ6,AccX7,AccY7,AccZ7,GyrX7,GyrY7,GyrZ7,AccX8,AccY8,AccZ8,GyrX8,GyrY8,GyrZ8,AccX9,AccY9,AccZ9,GyrX9,GyrY9,GyrZ9,AccX10,AccY10,AccZ10,GyrX10,GyrY10,GyrZ10,AccX11,AccY11,AccZ11,GyrX11,GyrY11,GyrZ11,AccX12,AccY12,AccZ12,GyrX12,GyrY12,GyrZ12,AccX13,AccY13,AccZ13,GyrX13,GyrY13,GyrZ13,AccX14,AccY14,AccZ14,GyrX14,GyrY14,GyrZ14,AccX15,AccY15,AccZ15,GyrX15,GyrY15,GyrZ15,AccX16,AccY16,AccZ16,GyrX16,GyrY16,GyrZ16,AccX17,AccY17,AccZ17,GyrX17,GyrY17,GyrZ17,AccX18,AccY18,AccZ18,GyrX18,GyrY18,GyrZ18,AccX19,AccY19,AccZ19,GyrX19,GyrY19,GyrZ19,AccX20,AccY20,AccZ20,GyrX20,GyrY20,GyrZ20,AccX21,AccY21,AccZ21,GyrX21,GyrY21,GyrZ21,AccX22,AccY22,AccZ22,GyrX22,GyrY22,GyrZ22,AccX23,AccY23,AccZ23,GyrX23,GyrY23,GyrZ23,AccX24,AccY24,AccZ24,GyrX24,GyrY24,GyrZ24,AccX25,AccY25,AccZ25,GyrX25,GyrY25,GyrZ25,AccX26,AccY26,AccZ26,GyrX26,GyrY26,GyrZ26,AccX27,AccY27,AccZ27,GyrX27,GyrY27,GyrZ27,AccX28,AccY28,AccZ28,GyrX28,GyrY28,GyrZ28,AccX29,AccY29,AccZ29,GyrX29,GyrY29,GyrZ29,AccX30,AccY30,AccZ30,GyrX30,GyrY30,GyrZ30,Label
-93,-383,3,2102,-593,2130,-61,-217,-2,133,-223,395,-44,-130,0,-116,-39,-291,-35,-79,0,-202,59,-495,-29,-58,6,-274,71,176,-10,41,3,-750,214,-935,0,58,6,-496,193,-844,5,73,4,-304,113,-484,12,74,8,-93,-9,-148,14,72,-5,111,-37,139,17,57,1,119,-98,423,13,41,-3,355,-115,433,10,12,-5,358,-98,458,6,-5,-9,250,-49,482,6,-14,-5,171,-45,453,3,-25,-8,197,1,171,3,-15,-4,80,11,93,3,-8,-1,-2,13,46,1,-6,0,-19,4,-24,0,0,1,-37,7,-10,0,2,1,-13,3,-44,0,1,0,-13,-2,-1,-1,1,0,-5,-6,-10,0,0,0,1,0,4,0,0,0,3,0,1,0,0,0,-1,-3,-4,0,0,0,-5,-1,3,0,0,0,-1,-2,-4,0,0,0,0,0,-8,0,0,0,3,3,-10,up
-68,-140,14,1797,-194,3499,-31,-139,14,992,-151,1360,-28,-130,7,277,-121,436,-25,-93,0,-56,2,-67,-17,-61,7,-92,35,534,-5,-21,4,-573,96,-1035,-5,17,2,-690,134,-1040,3,53,4,-544,149,-867,14,78,10,-318,50,-598,16,78,0,-131,-2,-201,19,73,-3,41,-70,135,20,60,-5,208,-88,347,14,39,-6,291,-101,514,6,4,-9,407,-53,456,2,-15,-8,250,-42,498,1,-24,-5,189,0,369,0,-24,-3,87,9,280,1,-16,-3,90,28,16,0,-9,-1,-46,7,19,0,-1,1,-31,17,-14,0,0,1,-14,15,-23,0,2,1,-6,6,-41,0,1,0,-9,-3,-28,-1,1,1,2,-9,-16,-1,-1,0,1,-6,-1,-1,-1,0,-8,-6,-13,0,0,0,-2,0,-1,0,0,0,1,-5,-6,0,0,-1,-3,0,2,0,0,0,-1,2,0,up
-62,-169,11,1933,-434,3299,-32,-141,3,1008,-259,1333,-31,-139,4,330,-188,477,-28,-109,0,-17,-55,-37,-20,-70,5,-47,18,472,-15,-30,5,-524,149,-993,-10,10,7,-652,182,-978,-4,53,4,-523,219,-832,7,63,9,-363,134,-633,14,80,6,-158,35,-274,22,70,-2,-74,-11,-9,19,58,-4,66,-54,232,22,43,-1,207,-86,301,13,36,-4,309,-85,300,7,0,-11,182,-49,457,7,2,-3,188,-57,403,7,-8,-4,199,-31,360,4,-12,-5,117,-27,229,4,-14,-4,86,-9,137,1,-12,0,33,-18,126,0,-11,-2,28,-6,-1,0,-4,0,-24,1,0,0,0,0,-16,1,-38,0,2,0,-12,0,-6,0,2,-1,-7,14,-36,0,3,0,-1,16,21,0,1,0,14,-1,-2,-1,0,0,17,4,-5,0,0,0,-3,-1,7,0,0,1,-1,-11,5,up
-83,-139,21,1642,-331,3321,-43,-110,12,918,-176,1429,-37,-140,4,433,-150,516,-32,-107,0,-11,-17,10,-25,-62,6,-78,34,514,-12,-36,3,-500,115,-875,-12,3,5,-579,120,-973,-5,50,5,-531,173,-832,4,61,11,-306,93,-593,6,52,0,-132,48,-306,15,67,0,-6,3,-49,20,49,-7,24,-15,124,21,44,-2,160,-62,260,16,34,-9,193,-53,260,15,18,-4,192,-59,329,9,-1,-6,130,-39,358,8,-5,-3,189,-24,263,5,-9,-5,87,-18,244,4,-8,-3,135,-24,105,3,-6,-3,14,-16,144,4,-2,0,55,-12,56,1,-3,-1,5,-13,65,1,-3,-1,18,-4,-3,0,-2,0,-2,2,18,0,-1,0,0,-3,-23,0,0,0,-7,5,3,0,1,0,-5,11,-1,0,1,0,10,9,-5,0,0,0,-10,-4,-2,0,0,0,4,-4,6,up
-22,157,1,803,-33,2033,-14,36,13,748,-104,1488,-15,-9,8,681,-138,1085,-22,-44,7,464,-95,713,-22,-54,5,226,-60,692,-24,-103,5,-8,-50,-43,-23,-87,-4,-312,18,-492,-19,-50,0,-505,124,-862,-12,-17,3,-527,138,-775,-5,14,5,-417,143,-896,5,44,4,-423,159,-773,14,66,10,-193,117,-519,17,50,4,-5,50,-278,26,70,2,20,-9,-16,23,54,-1,102,-64,250,17,34,-1,146,-102,370,13,11,-4,167,-78,303,8,10,-4,90,-82,462,1,-18,-7,110,-52,334,1,-15,-6,81,-16,249,4,-9,-5,110,5,73,0,-5,-3,27,-6,32,2,-4,-2,12,-1,41,1,0,0,29,2,5,0,-1,0,0,-3,27,0,0,0,16,-2,-1,0,0,-1,-15,-7,13,0,0,0,9,-2,25,0,0,0,-8,12,-3,0,1,0,13,9,-16,up
-76,-141,20,1488,-263,2991,-38,-141,7,693,-189,1255,-40,-132,10,304,-156,386,-31,-106,-2,-21,-31,-78,-25,-59,4,-56,37,413,-13,-29,2,-442,108,-800,-10,12,4,-505,139,-909,-1,41,0,-467,182,-775,8,60,8,-324,123,-552,15,51,2,-206,41,-265,25,62,-5,-128,6,-73,23,59,-5,59,-47,59,23,51,-8,141,-58,223,19,39,-3,279,-88,249,14,19,-10,207,-51,420,8,1,-2,235,-56,355,7,-11,-4,167,-14,373,8,-10,0,121,-39,248,4,-12,-5,63,-12,195,2,-8,0,56,-36,122,3,-6,-3,50,-17,47,1,-3,-1,-3,-9,51,0,-2,-1,24,4,-5,0,-2,0,-6,-4,26,0,-2,0,-4,6,-23,0,0,0,-17,6,-10,0,0,0,-3,2,-11,0,1,0,-8,0,-12,0,0,0,-1,7,-5,0,1,0,-1,-2,7,up
-85,-137,15,1827,-418,3372,-47,-105,11,712,-210,1566,-36,-117,6,556,-170,692,-36,-105,4,102,-106,185,-31,-82,0,-89,-2,585,-13,-35,5,-453,143,-866,-14,-14,2,-447,176,-1038,-11,27,5,-585,227,-899,0,51,10,-418,215,-733,9,74,14,-176,95,-477,13,65,-1,-174,5,-166,21,67,-2,-25,-49,122,25,51,-3,70,-107,266,20,43,-10,283,-101,277,15,13,-9,185,-74,339,12,3,-4,256,-52,374,8,-5,-2,131,-39,387,5,-8,-3,183,-13,140,5,-10,-2,37,-18,198,3,-5,-3,79,-14,72,3,-5,-2,-8,-12,123,2,-4,-1,72,-1,14,2,-1,-1,-7,1,9,1,0,0,22,-7,8,1,-1,0,0,0,42,0,0,0,13,-7,-7,-1,-1,0,-20,-5,24,-1,0,0,10,-4,-21,0,0,0,-13,5,34,0,0,0,3,2,-12,up
-106,-122,24,1167,-482,2764,-60,-90,19,600,-229,1308,-49,-115,11,468,-159,553,-41,-94,9,58,-77,133,-34,-65,4,-27,3,417,-15,-31,2,-292,144,-699,-12,-13,1,-424,148,-822,-5,29,4,-501,156,-662,1,43,2,-334,144,-613,12,48,4,-232,68,-376,20,44,-1,-200,36,-102,28,56,-5,-64,1,-81,26,51,-9,153,-36,76,25,40,-7,176,-66,118,18,29,-6,208,-56,189,12,15,-3,210,-63,344,7,0,-2,238,-39,251,8,-7,-1,50,-22,374,6,-5,-1,115,-19,232,4,-13,-2,50,-19,217,5,-5,-2,56,-33,96,2,-7,-1,5,-22,88,0,-5,0,16,-4,3,1,-2,0,-13,3,8,0,0,0,-1,2,-24,0,0,0,-16,12,-23,0,0,0,3,1,-14,0,0,0,-2,-7,17,0,0,0,4,-4,-10,0,0,0,0,-2,9,up
-99,-123,13,1329,-429,3466,-50,-129,15,968,-240,1411,-50,-137,13,342,-163,480,-40,-104,-3,-13,-38,-47,-32,-54,3,-34,41,601,-17,-34,4,-360,137,-869,-15,7,4,-575,163,-885,-5,42,2,-471,199,-838,1,57,14,-293,133,-449,8,35,5,-205,57,-274,20,59,1,-35,17,-105,23,44,-4,-5,-39,6,26,51,-4,170,-74,159,25,37,-6,219,-94,186,17,25,-7,201,-82,259,12,5,-3,102,-66,413,8,-1,-5,171,-14,225,7,-7,-2,110,-30,273,3,-12,-4,100,-8,182,5,-4,1,30,-20,140,2,-7,-3,28,-4,54,3,0,0,19,-18,45,0,-5,-1,-18,2,44,0,0,0,-23,3,22,0,-2,0,-1,0,14,1,1,0,-6,0,-10,0,-1,0,-1,5,2,0,0,0,2,1,-16,0,0,0,-3,-2,10,0,0,0,5,2,-7,up
-35,153,10,779,-171,2242,-23,36,9,746,-113,1572,-22,-15,4,709,-114,1125,-22,-40,1,539,-126,782,-25,-51,1,268,-110,814,-22,-108,2,-16,-46,-29,-21,-90,-4,-290,32,-569,-19,-49,0,-470,124,-884,-17,-24,4,-593,182,-793,-8,9,9,-463,199,-912,-1,50,6,-371,193,-845,4,63,8,-363,124,-407,12,50,4,-281,10,-134,17,59,-1,-16,-62,-31,17,46,-8,84,-69,37,20,32,-9,129,-109,319,16,15,-10,286,-96,179,14,14,-7,249,-57,181,14,1,-7,140,-5,181,12,0,-6,60,-19,254,9,-1,-4,98,-2,180,8,1,-1,63,-14,150,4,-1,-2,88,-12,123,2,-3,0,40,-9,142,0,-3,1,67,1,59,0,-4,-1,17,1,57,0,-4,0,17,-3,9,0,-3,-1,-12,7,32,0,0,0,0,-6,-17,1,-1,0,-13,-8,9,up
-73,-147,17,2003,-616,3290,-55,-110,19,521,-231,1575,-39,-126,15,390,-139,518,-35,-103,0,72,-47,-30,-30,-60,3,-62,35,436,-19,-25,4,-536,184,-742,-12,6,4,-390,149,-1032,-9,45,0,-513,172,-862,3,67,11,-332,124,-513,9,52,3,-96,43,-289,17,51,-4,-73,60,-28,25,52,-2,96,-2,81,25,36,-6,147,-44,253,21,27,-3,245,-50,164,18,15,-3,117,-49,341,16,9,-1,196,-92,263,8,-9,-6,57,-44,362,6,-2,-1,123,-31,148,3,-10,-4,35,-27,191,3,-5,-1,34,-24,110,2,-4,0,20,-22,122,1,-3,0,33,-2,8,1,-2,0,9,-7,31,0,-2,-1,-8,-3,20,0,-1,-1,2,-1,-7,0,0,-1,-2,2,-5,0,0,0,-3,3,1,0,0,0,2,-2,7,0,1,0,3,4,-8,0,0,0,7,1,-7,up
-37,164,21,865,-113,2450,-22,44,20,975,-142,1679,-20,-16,10,825,-189,1226,-18,-57,1,546,-166,838,-19,-73,0,291,-125,774,-16,-117,-3,-39,-54,-283,-17,-89,-8,-429,60,-769,-18,-51,-4,-673,180,-970,-15,0,5,-692,223,-954,-11,36,7,-639,252,-1013,1,68,9,-466,219,-771,8,63,5,-304,140,-307,21,73,5,-16,34,-76,27,69,1,58,-38,213,24,50,-2,305,-101,262,15,23,-6,273,-135,419,14,10,-4,348,-125,349,6,-10,-7,177,-99,440,0,-24,-7,199,-47,257,3,-13,-3,38,-32,232,3,-8,-3,67,-6,55,1,-2,0,-1,-20,73,1,-4,0,17,-5,13,0,-1,0,-10,-12,16,0,-1,0,1,0,-27,0,0,0,-10,0,-2,0,0,0,-5,3,-15,0,1,0,0,5,4,0,0,0,1,8,-14,0,1,0,9,9,16,up
-63,-145,23,2476,-739,3300,-46,-152,3,943,-380,1375,-42,-142,0,336,-177,404,-34,-105,-8,-57,5,-114,-28,-61,1,-142,80,476,-16,-26,0,-751,244,-854,-11,21,6,-730,272,-963,3,66,13,-539,211,-844,8,74,14,-192,94,-468,17,67,8,-2,-13,-151,20,58,0,58,-44,86,24,47,-1,236,-82,138,20,25,-8,233,-74,216,18,14,-7,170,-80,265,12,-1,-7,52,-44,363,11,2,-5,172,-35,187,9,-2,-5,70,-29,224,6,-3,-5,83,-27,191,6,-2,0,54,-13,172,3,-4,-2,78,-19,86,2,-4,-1,25,-14,105,1,-4,-2,37,-6,46,1,-3,0,13,0,28,0,-2,-1,5,2,19,1,-1,0,10,-3,-12,0,-1,0,-10,-2,-4,0,-1,0,1,-1,2,0,0,0,-3,-5,-4,0,0,0,0,-2,-18,0,0,0,-5,2,8,up
-69,-152,8,2143,-658,3970,-35,-148,2,1332,-371,1545,-39,-160,-6,431,-174,474,-35,-122,-9,-71,-5,-154,-32,-65,1,-76,84,644,-21,-35,3,-618,220,-1065,-21,14,7,-822,264,-1021,-8,58,12,-664,239,-970,1,79,23,-250,121,-499,7,58,10,-129,23,-223,15,69,8,51,-31,-50,19,55,2,75,-69,227,21,46,-2,318,-103,156,19,26,-10,197,-92,342,19,12,-8,152,-91,311,15,0,-9,90,-45,468,11,-6,-6,190,-39,215,7,-7,-4,67,-25,282,4,-6,-3,107,-16,140,2,-5,-2,57,-10,126,2,-3,-1,51,-4,85,2,-4,-1,24,-2,36,1,-1,0,24,-4,31,0,-2,0,6,-9,15,0,0,0,-5,-6,23,-1,0,0,5,-6,-14,-1,-1,-1,-1,-7,21,0,0,0,-7,-1,-22,0,-1,0,0,0,0,0,0,0,-6,0,-7,up
158,266,-18,384,10,-887,65,-11,-11,-313,-87,175,5,30,7,-9,-26,70,5,-5,5,58,27,3,8,3,-1,49,-18,-403,-25,-50,1,-67,-22,460,-18,5,0,134,41,-50,2,-19,-5,12,25,-78,0,3,-6,-44,-16,36,-1,-1,0,-60,24,-23,0,-1,1,1,24,-18,0,0,2,-15,-3,30,0,2,0,9,-8,-37,1,1,0,-6,-2,20,-1,-1,-1,28,-6,-24,0,0,0,-7,-1,20,0,0,0,18,0,-15,0,0,0,-7,6,13,0,0,0,9,-2,-18,-1,0,0,-5,-1,8,0,0,0,0,-2,-6,0,0,0,-2,0,-6,0,0,0,-4,-7,17,0,0,0,7,4,-27,0,0,0,-3,1,35,-1,0,0,9,-6,-39,-1,0,0,-6,-1,28,0,0,0,4,0,-19,0,0,0,-4,-8,4,0,0,0,-3,1,-3,up
-35,151,52,586,48,1307,-24,93,32,607,-71,1150,-20,39,17,602,-123,1084,-15,15,8,600,-122,941,-12,-12,2,525,-128,852,-5,-61,-14,321,-152,566,1,-91,-19,343,-142,290,-9,-133,-20,-65,-104,-257,-9,-134,-20,-522,33,-855,-15,-64,-8,-594,132,-1009,-18,-45,0,-707,220,-1160,-24,0,7,-1043,280,-1149,-8,70,12,-803,326,-1122,-4,109,22,-383,236,-790,4,70,11,-251,139,-345,11,92,7,120,79,-50,25,86,4,246,-63,258,22,66,3,455,-149,426,16,28,0,349,-174,607,14,11,0,337,-144,550,11,-13,0,145,-175,702,1,-31,-6,222,-60,380,0,-27,-6,60,-2,269,1,-17,-7,86,5,17,1,-7,-4,-18,3,42,0,-3,-1,6,10,-38,-1,-1,0,-14,14,-11,0,0,0,0,2,-39,0,2,0,-15,-2,-8,0,1,0,12,-2,-2,up
-38,141,53,583,-50,1276,-22,89,32,639,-106,1170,-15,48,15,675,-128,1142,-5,18,4,637,-136,1134,2,-20,-4,637,-168,998,11,-108,-25,435,-196,549,3,-144,-20,9,-120,-79,-1,-134,-28,-448,30,-686,-11,-91,-12,-609,164,-1163,-21,-46,0,-912,260,-1260,-28,29,14,-946,343,-1295,-18,76,15,-719,331,-1338,-11,92,29,-303,225,-647,2,84,15,-170,106,-180,9,91,14,89,3,120,15,65,5,190,-79,394,17,47,1,389,-149,389,18,17,-7,264,-160,463,12,-1,-5,234,-154,508,9,-21,-9,141,-90,500,9,-9,-3,184,-56,222,7,-14,-9,42,-13,215,5,-4,-2,74,-13,100,2,-7,-2,30,-4,117,2,-4,-1,45,0,26,1,-5,-2,11,-5,20,1,0,0,15,-11,-17,0,-1,0,-5,-3,6,0,0,0,0,1,-24,0,0,0,-7,-1,25,up
-34,167,49,1850,-335,3532,-13,26,7,1278,-294,2133,-6,-42,-4,1033,-280,1381,-7,-67,-9,598,-222,951,-4,-74,-7,279,-160,1163,-6,-135,-15,-129,-79,-398,-13,-117,-18,-611,95,-1061,-17,-57,-1,-814,260,-1265,-16,-13,6,-775,315,-1123,-22,26,6,-740,328,-1376,-8,77,13,-732,308,-968,0,114,25,-150,164,-597,15,112,2,-194,41,-30,14,87,13,381,-116,367,14,53,1,298,-126,551,18,37,4,481,-138,301,12,-7,-10,144,-133,815,3,-27,5,362,-131,262,7,-17,-12,-135,-9,460,13,0,0,149,-37,37,5,-10,-10,3,-12,172,7,1,1,105,-9,0,3,-2,-3,24,-3,119,1,-3,0,52,-9,37,1,-6,-1,11,-10,50,0,-3,-1,3,-8,-9,1,-1,0,-4,0,23,1,0,0,2,3,-16,1,0,0,-11,-7,12,0,1,0,-5,2,-8,up
-36,156,41,338,218,525,-11,103,24,373,-68,981,-14,70,15,519,-62,1071,-13,25,12,547,-73,1055,-9,0,6,608,-95,722,2,-63,-9,507,-184,830,0,-107,-17,440,-125,399,2,-146,-22,90,-92,-129,2,-139,-29,-445,-6,-866,-7,-80,-15,-763,118,-1164,-21,-48,-1,-804,230,-1279,-26,7,7,-976,284,-1314,-19,61,14,-896,297,-1231,-11,103,30,-393,215,-817,5,78,15,-114,139,-450,17,92,0,-86,53,49,30,97,10,266,-57,356,20,69,5,390,-141,520,13,32,0,390,-138,594,4,5,0,273,-160,753,5,-11,4,346,-154,553,-3,-42,-9,130,-76,471,3,-28,-6,127,-22,166,3,-19,-8,25,0,57,3,-5,-5,4,-5,-17,0,-2,-1,-34,9,-1,-1,0,0,-1,1,-27,-2,-1,1,-21,0,-22,0,2,0,-11,-7,-23,0,0,0,0,7,7,up
-22,152,47,668,-25,1352,-17,83,21,504,-104,1272,-6,50,10,640,-148,1261,-2,-4,2,693,-203,1107,-4,-39,-4,497,-203,931,0,-117,-15,349,-216,373,-5,-136,-18,51,-108,-252,-10,-105,-19,-466,70,-919,-18,-73,-12,-764,262,-1156,-11,-8,2,-859,334,-1270,-26,46,4,-919,397,-1445,-7,98,19,-591,311,-993,-7,77,16,-98,188,-459,13,114,20,-12,-18,132,5,60,5,261,-84,393,22,55,9,328,-160,504,12,6,-7,373,-138,457,17,2,-3,134,-161,651,5,-34,-9,239,-81,372,6,-11,-2,85,-45,315,5,-15,-7,142,-13,22,3,-2,-1,-32,-29,155,1,-5,0,70,-18,26,-1,-3,0,-19,-10,79,0,-3,0,32,-11,-35,0,-3,1,-20,-6,38,1,-1,-1,3,-10,-15,0,0,0,-19,-1,-1,0,-1,0,-1,4,-19,0,0,-1,-23,11,2,up
103,-116,-52,-506,342,-1680,81,-63,-30,-368,302,-1323,87,-36,-23,-436,203,-1208,91,-13,-29,-468,176,-1124,94,5,-17,-294,18,-1011,47,31,-15,114,10,-154,34,23,-5,113,-73,301,1,33,0,212,-111,504,-21,17,7,388,-160,673,-36,-5,0,359,-63,1285,0,-7,3,131,-140,1174,11,5,-9,318,-137,1010,16,-12,-9,284,-129,781,-3,-13,2,278,-87,570,-27,-21,9,257,-52,325,-55,-28,13,-40,0,-159,-68,-24,22,-227,66,-397,-65,-13,22,-227,102,-689,-43,4,12,-295,109,-787,-28,19,8,-349,96,-564,-12,30,9,-141,59,-455,-8,24,6,-63,10,-263,-6,16,2,-13,11,-95,-5,5,1,10,-6,-6,-1,3,0,38,0,23,0,-2,0,43,-2,25,1,-3,-2,16,12,38,2,0,-1,-2,0,-24,1,-2,0,-5,2,24,1,0,0,-13,0,9,down
93,-117,-42,-469,250,-1594,72,-65,-31,-407,257,-1236,77,-38,-30,-462,201,-1117,79,-23,-29,-404,165,-1060,87,-10,-26,-256,114,-1129,64,23,-23,-139,-9,-372,34,10,-4,324,-2,226,13,19,2,135,-115,625,-13,20,9,334,-150,505,-31,-6,4,331,-148,1060,-19,-17,12,290,-90,1228,4,4,-4,-28,-169,964,7,-5,-6,329,-97,599,13,-5,-5,233,-97,486,-1,12,2,153,-77,500,-22,9,5,139,-67,263,-42,-4,11,32,-18,-7,-49,-9,14,-58,14,-250,-52,-11,12,-161,65,-389,-47,-6,16,-177,82,-487,-39,0,12,-199,109,-533,-25,15,11,-138,92,-458,-20,15,8,-125,71,-345,-13,14,7,-85,46,-235,-8,10,5,-39,27,-111,-5,7,3,4,2,-78,-1,1,0,-2,-11,9,0,2,0,-4,0,-19,0,-1,0,12,1,-4,0,0,-1,-18,2,-5,down
84,-137,-36,-329,290,-1487,65,-63,-23,-335,218,-1251,68,-29,-25,-365,190,-1133,73,-11,-24,-353,168,-1007,78,-5,-29,-322,170,-981,74,33,-12,-75,64,-554,42,31,-9,158,-22,71,24,3,0,265,-60,588,-2,13,6,180,-155,764,-22,0,12,371,-218,677,-28,-17,0,237,-207,1311,1,-11,-3,88,-184,1107,8,11,-11,179,-181,764,9,-8,-9,353,-93,512,-2,-3,-2,215,-53,423,-26,-3,5,148,13,208,-43,-12,11,26,50,-70,-53,-4,21,-123,66,-275,-56,-4,20,-160,60,-420,-49,1,18,-209,61,-504,-35,6,14,-210,56,-446,-26,8,12,-133,62,-375,-19,5,6,-115,66,-351,-8,10,2,-96,56,-217,-5,9,1,-70,36,-155,-2,10,1,-11,7,-101,0,8,0,-2,-3,-60,0,3,0,28,-17,33,-1,0,0,19,-14,41,0,0,0,25,-2,-13,down
89,-131,-27,-372,171,-1446,68,-62,-27,-363,172,-1217,72,-21,-28,-321,171,-1086,67,-15,-29,-347,188,-927,69,-1,-17,-222,193,-881,58,26,-19,-188,103,-461,48,29,-7,59,-8,-107,17,8,0,174,-74,453,7,4,10,198,-173,702,-11,-1,2,215,-240,873,-14,-9,4,369,-212,910,-9,-14,-4,181,-162,1152,7,0,-6,254,-136,816,3,-2,-9,333,-91,482,-3,-10,-2,184,-63,341,-18,-1,7,94,-20,217,-36,-4,12,50,20,-97,-48,-7,17,-142,47,-250,-52,0,20,-214,82,-301,-44,6,18,-114,90,-429,-37,3,13,-174,85,-399,-26,8,11,-134,73,-349,-18,9,6,-88,58,-279,-9,8,3,-41,35,-214,-7,6,1,-57,19,-105,-3,5,1,-19,6,-71,-1,3,0,-10,7,-73,-1,0,0,2,-5,-2,0,1,0,2,-1,0,0,-1,0,4,-2,-20,down
75,-138,-45,-460,226,-1253,63,-78,-36,-516,235,-1174,71,-43,-31,-446,224,-1188,77,-19,-30,-388,207,-1141,82,-3,-28,-290,193,-1051,86,31,-20,-177,74,-599,36,47,-4,258,-31,132,19,20,6,140,-135,643,-8,29,11,220,-198,835,-25,-6,7,387,-240,841,-34,-20,6,409,-201,1570,10,-24,-6,67,-166,1062,9,0,-13,348,-84,724,7,-19,-8,345,-69,410,-12,-2,2,142,-62,344,-33,1,9,34,-14,146,-53,-10,15,-28,41,-180,-58,-7,19,-163,57,-354,-55,-4,19,-210,100,-541,-41,3,16,-233,123,-499,-31,11,13,-188,112,-468,-19,16,11,-94,72,-384,-13,12,6,-93,36,-240,-6,11,2,-53,-2,-187,-3,9,1,-21,-13,-59,-2,4,0,10,-13,-52,-1,2,-1,-1,0,7,0,1,0,27,-9,-36,0,0,-1,4,7,25,0,-1,0,9,5,8,down
77,-127,-45,-543,311,-1439,66,-72,-35,-485,243,-1287,75,-34,-32,-470,197,-1189,84,-6,-27,-429,167,-1073,85,6,-27,-402,98,-907,68,26,-21,-95,-4,-457,44,34,0,261,-75,81,13,14,3,263,-116,482,-13,5,5,293,-178,820,-27,-13,9,499,-160,850,-20,-12,7,296,-139,1130,0,-13,-9,32,-124,1116,13,4,-9,206,-110,780,13,-3,-5,307,-72,574,-7,-3,1,167,-55,370,-26,-3,9,132,-24,241,-49,-13,14,14,27,-128,-59,-16,18,-116,88,-389,-59,-9,18,-213,117,-572,-45,2,14,-282,125,-541,-33,14,13,-252,111,-498,-18,22,10,-129,76,-420,-10,21,7,-88,21,-267,-5,14,4,-38,5,-123,-2,9,3,16,-11,-51,0,3,0,27,-1,-9,0,1,0,21,-4,25,0,-2,-1,20,-5,17,0,-1,-1,-4,-18,9,0,0,0,4,3,-6,down
76,135,-8,-190,264,-844,22,67,8,158,-107,147,2,0,8,-5,-65,211,3,-9,1,73,-34,51,9,7,-4,14,-13,-344,-7,-29,-2,53,-78,375,-6,-33,-8,-108,48,121,3,0,-7,9,51,-242,1,9,-3,-74,24,-29,-6,-4,2,-43,3,-25,-4,5,2,-23,22,-14,0,8,4,49,-1,-66,-2,1,0,7,0,40,-3,0,1,21,-1,36,-1,-2,0,29,8,-1,-2,-3,0,10,2,5,-1,-1,0,0,-9,-10,-1,-1,0,-8,-16,-13,-1,-1,0,-11,-2,-26,-1,0,0,-4,-1,-23,0,1,0,-5,-4,-28,-1,0,0,-15,5,15,0,1,0,-7,9,-34,0,1,0,-5,11,-3,0,0,0,-1,5,8,0,0,1,5,6,4,0,0,0,8,-6,-14,0,0,0,0,-7,13,0,0,0,15,-10,-10,0,0,-1,4,0,0,down
67,-141,-36,-277,187,-1336,62,-90,-29,-409,186,-1263,73,-41,-25,-442,198,-1221,81,-20,-26,-368,196,-1164,89,-3,-24,-255,217,-1032,84,25,-17,-97,97,-585,40,39,-7,271,35,108,23,7,1,189,-69,542,-10,26,17,151,-176,758,-34,-3,9,291,-279,858,-34,-9,8,184,-231,1401,8,-12,0,-40,-250,1149,13,10,-9,288,-206,789,20,-20,-19,353,-158,617,5,-4,-6,160,-100,568,-20,-2,2,229,-48,304,-50,-17,5,80,47,-103,-69,-14,17,-160,121,-314,-70,-4,22,-135,172,-535,-60,0,22,-164,161,-658,-45,6,16,-268,140,-558,-26,21,16,-161,93,-466,-13,20,8,-77,45,-375,-6,15,4,-83,4,-194,-3,10,1,-47,-2,-93,0,6,0,-9,-6,-65,0,3,-1,10,-5,9,0,1,-1,22,-19,-8,0,-1,-2,2,-6,24,0,0,0,9,3,19,down
54,-152,-37,-321,120,-1201,60,-72,-32,-432,197,-1150,72,-40,-28,-374,190,-1167,78,-17,-28,-325,181,-1077,79,-16,-32,-335,210,-983,95,29,-18,-123,199,-758,59,38,-9,311,74,-243,28,-5,-8,321,45,440,-3,19,17,88,-151,856,-23,9,18,281,-280,676,-46,-17,5,214,-318,1270,-13,-25,-2,-157,-290,1304,4,18,1,61,-282,923,17,-15,-25,401,-136,665,12,1,-12,300,-45,493,-3,6,-2,257,-31,473,-28,0,5,236,38,85,-51,-9,11,-6,46,-126,-63,-8,22,-150,101,-342,-60,-8,23,-173,93,-596,-53,0,20,-270,122,-553,-38,10,19,-234,104,-572,-22,20,12,-156,81,-454,-8,19,8,-96,38,-345,-7,15,2,-82,24,-132,-2,11,2,-12,3,-87,-1,5,-1,17,-5,-31,0,0,-1,8,-4,13,-1,0,0,14,0,29,0,0,0,15,-3,4,down
81,-125,-49,-425,251,-1579,72,-55,-33,-346,193,-1217,72,-23,-27,-313,151,-1026,61,-17,-25,-338,171,-872,68,-7,-23,-317,167,-893,61,19,-14,-123,105,-498,48,15,-11,46,2,-158,16,2,-5,153,-47,349,12,1,7,221,-140,670,-11,1,8,275,-217,687,-19,-4,6,289,-218,859,-12,-7,0,197,-161,1187,11,2,-5,229,-141,922,6,1,-14,293,-89,632,3,-3,-7,265,-44,469,-10,1,0,168,-25,343,-29,2,12,117,-26,93,-45,-10,16,-96,-1,-129,-51,-1,22,-166,20,-311,-52,-8,18,-179,63,-481,-45,-3,18,-230,97,-507,-36,4,12,-225,123,-450,-23,15,11,-116,105,-454,-13,14,5,-99,66,-318,-5,18,5,-53,14,-195,-1,13,1,-29,-15,-105,0,9,0,4,-27,-33,-1,2,-1,22,-22,38,0,-2,-1,18,2,29,0,-2,-2,12,15,21,down
92,-129,-47,-689,222,-1789,82,-61,-30,-520,198,-1399,84,-31,-32,-440,136,-1212,82,-14,-34,-444,145,-1052,81,-10,-25,-297,132,-1037,67,24,-16,-67,42,-406,25,26,-6,276,-32,218,9,6,7,290,-61,613,-12,10,11,226,-144,773,-27,-3,7,337,-169,775,-26,-16,4,303,-132,1214,6,-15,-7,33,-117,822,7,1,-9,144,-102,692,11,-9,-6,320,-57,445,1,6,-1,175,-54,372,-12,11,4,142,-49,298,-28,6,10,84,-23,90,-41,5,13,-19,-1,-36,-48,-1,15,-46,19,-214,-50,-10,15,-144,32,-371,-51,-9,16,-244,73,-408,-40,0,18,-127,92,-421,-33,-7,8,-178,89,-454,-21,9,10,-213,77,-362,-11,15,5,-87,69,-290,0,19,3,-31,28,-230,0,9,-1,-60,7,-61,2,14,3,10,-7,-2,0,1,-1,57,-10,-5,1,1,0,1,-9,51,down
125,-99,-53,-429,312,-1992,85,-46,-38,-523,215,-1328,83,-15,-31,-357,220,-1082,79,-13,-31,-316,237,-889,78,-4,-24,-221,189,-1022,55,14,-15,-10,81,-342,41,9,-9,130,-23,16,14,-1,0,174,-87,477,-2,0,8,162,-212,683,-18,-2,5,220,-245,693,-16,-7,4,188,-214,1033,-4,-2,-1,189,-175,1100,9,4,-8,274,-166,853,7,4,-7,342,-110,553,-4,0,-1,258,-68,416,-16,3,5,154,-51,304,-35,-5,10,47,10,-49,-48,-8,16,-132,55,-252,-52,-6,16,-199,92,-407,-47,-3,17,-210,123,-509,-39,3,14,-237,132,-446,-28,13,13,-143,115,-449,-20,12,9,-116,65,-359,-9,14,5,-43,39,-238,-3,10,1,-40,-4,-126,-2,7,1,-1,-15,-85,-1,4,0,-5,-18,-14,0,3,0,27,-5,6,-1,-2,-1,-6,0,14,0,1,0,0,11,3,down
68,-134,-42,-428,229,-1520,61,-61,-33,-410,189,-1241,70,-26,-28,-312,172,-1082,67,-14,-27,-289,180,-889,63,-3,-23,-197,191,-821,54,18,-12,-51,165,-390,45,15,-6,24,35,-100,18,7,0,98,-65,306,3,0,7,183,-159,639,-6,-8,7,165,-245,775,-10,-3,1,176,-303,904,-7,-3,-4,247,-212,977,6,2,-8,297,-161,940,5,3,-10,288,-102,644,-5,2,-4,260,-60,431,-16,1,4,222,-15,272,-33,-3,9,85,2,-56,-45,-5,15,-99,32,-158,-48,0,19,-110,45,-316,-44,-2,17,-136,45,-370,-40,-3,14,-252,69,-377,-31,3,16,-189,93,-341,-25,0,12,-134,97,-361,-18,1,6,-140,71,-292,-9,11,4,-117,66,-211,-5,12,3,-19,29,-191,-1,12,0,-3,0,-105,0,9,-1,26,-14,-58,0,5,0,11,-6,19,0,0,-1,20,-3,30,down
113,-94,-52,-600,370,-2051,84,-46,-37,-401,282,-1416,83,-18,-31,-465,255,-1091,77,-8,-26,-270,210,-883,68,-12,-27,-288,148,-952,55,15,-12,-41,42,-345,38,9,-7,118,-56,108,11,-2,2,305,-113,476,-2,-4,5,160,-186,773,-10,2,10,301,-205,631,-15,-11,3,259,-201,984,-4,-2,0,104,-170,1036,9,9,-8,169,-160,771,6,1,-8,313,-109,505,-1,0,-3,216,-75,381,-17,1,1,106,-36,272,-33,-2,9,107,21,-42,-43,-7,14,-88,41,-211,-48,-2,17,-166,69,-318,-45,0,17,-188,94,-413,-41,2,16,-179,103,-452,-31,6,13,-190,95,-369,-23,11,11,-112,83,-377,-14,12,6,-109,55,-198,-8,11,3,-48,34,-169,0,9,0,-10,15,-85,0,8,0,33,-11,-61,0,0,-1,3,-10,21,0,-1,0,17,-4,10,0,-3,-2,8,-2,5,down
84,-126,-42,-364,319,-1504,70,-56,-30,-387,270,-1225,69,-26,-26,-327,217,-1066,73,-5,-27,-285,210,-882,62,-13,-26,-278,221,-860,61,24,-11,-129,120,-457,45,19,-8,68,4,-156,23,8,1,121,-105,387,0,-1,10,208,-194,659,-6,3,10,269,-273,824,-19,-10,1,259,-259,903,-8,-12,-2,195,-212,1116,2,-3,-8,258,-141,850,6,-5,-10,267,-88,565,0,-1,-4,206,-55,395,-10,2,2,140,-14,228,-27,5,9,59,20,39,-40,1,15,-18,46,-149,-51,-7,16,-179,60,-253,-49,-2,18,-231,90,-376,-46,1,14,-167,87,-470,-35,4,12,-188,91,-468,-25,11,7,-182,75,-372,-11,22,5,-67,54,-295,-4,18,3,22,19,-245,0,10,1,-9,9,-62,0,6,0,28,-13,-3,0,0,-1,24,-6,-10,0,-2,0,11,3,46,0,-2,-1,14,1,-12,down
97,-110,-52,-412,294,-2052,81,-47,-35,-556,228,-1366,80,-26,-32,-375,221,-1147,81,-21,-30,-298,197,-975,75,-11,-26,-261,136,-1062,55,20,-6,68,24,-204,24,2,-9,241,-27,314,8,1,8,154,-132,658,-12,13,11,207,-193,783,-18,-1,7,382,-200,818,-10,-15,-4,151,-184,1301,8,7,0,130,-181,913,3,6,-10,274,-121,579,-1,-5,-5,312,-68,356,-15,-2,4,224,-13,204,-31,-1,9,33,42,39,-46,-5,15,-101,66,-228,-48,-4,19,-124,69,-370,-45,-4,17,-256,78,-524,-37,6,16,-358,60,-376,-30,13,13,-167,55,-372,-16,12,9,-74,50,-375,-9,13,4,-85,49,-213,-4,14,3,-17,19,-137,-2,8,-1,25,14,-106,0,3,0,-1,7,-23,1,3,-1,32,5,10,0,-1,0,6,0,1,0,-1,0,-10,11,9,0,0,0,-8,10,-9,down
120,-96,-58,-430,311,-2254,80,-56,-44,-540,277,-1414,85,-14,-35,-551,242,-1080,76,-8,-32,-260,237,-862,63,-12,-22,-129,220,-1031,45,9,-12,-96,22,-135,25,17,2,167,-81,253,4,-6,10,295,-162,649,-8,-6,9,136,-259,766,-8,-4,1,165,-313,917,-9,-8,0,273,-199,1011,4,-6,-8,197,-152,943,0,2,-13,226,-87,579,-3,2,-2,279,-31,333,-15,6,2,180,-9,177,-28,6,10,70,9,-1,-41,0,13,-14,34,-165,-44,-2,17,-106,43,-294,-44,1,15,-167,59,-398,-39,0,14,-208,86,-371,-33,6,13,-164,108,-412,-20,9,10,-141,93,-374,-9,15,6,-99,52,-257,-5,11,4,-42,33,-173,0,10,1,-5,12,-110,2,5,-1,-3,-5,-33,0,2,-1,5,-11,14,0,-1,0,6,2,20,0,-1,-1,-3,4,17,0,0,0,-4,3,-2,down
102,-109,-61,-467,416,-2116,79,-57,-44,-622,298,-1342,86,-23,-37,-470,181,-1098,79,-16,-34,-303,108,-890,67,-14,-24,-236,126,-1004,52,11,-4,3,2,-145,24,16,0,266,-84,196,0,-1,6,264,-120,578,-13,2,10,208,-136,765,-13,-1,7,317,-190,793,-15,-11,-5,182,-177,1064,7,-9,-6,115,-133,921,9,2,-8,238,-96,630,3,-4,-6,253,-53,398,-10,4,-1,149,-13,285,-26,4,8,128,12,40,-45,-6,13,-35,33,-214,-50,-2,18,-177,61,-326,-47,6,19,-181,73,-420,-39,5,16,-201,59,-465,-28,13,14,-218,69,-357,-15,18,9,-87,51,-325,-8,16,5,-59,34,-241,-4,8,2,-32,14,-128,-3,5,1,-25,5,-63,0,3,-2,-5,-5,-76,0,2,0,-17,0,-3,-1,0,0,23,4,-13,0,0,0,-11,7,16,0,1,0,-3,3,-11,down
64,-136,-51,-458,325,-1677,62,-59,-37,-431,274,-1256,71,-27,-29,-323,267,-1070,63,-20,-30,-318,255,-867,64,-12,-22,-234,219,-888,56,19,-11,-62,66,-312,33,13,-1,160,-48,69,10,2,5,147,-154,594,0,5,12,185,-252,710,-14,-4,6,261,-295,818,-16,-10,1,216,-218,983,0,0,-4,133,-178,1029,4,5,-11,282,-132,629,2,-1,-8,285,-75,448,-9,4,0,178,-45,301,-23,2,6,169,-27,101,-40,-8,12,27,32,-179,-45,-9,17,-143,60,-260,-48,-1,18,-176,99,-386,-39,0,17,-161,123,-511,-32,7,16,-242,129,-418,-22,15,12,-173,90,-345,-15,16,8,-109,60,-257,-6,13,5,-53,18,-179,-3,10,1,-34,-2,-74,0,4,-1,-3,-16,-36,3,2,-2,24,-2,-45,2,0,-1,0,15,21,1,0,-1,2,15,-6,1,0,0,-9,3,31,down
86,-116,-57,-654,439,-1980,75,-49,-40,-409,350,-1415,73,-11,-33,-167,352,-1089,60,-25,-32,-100,384,-902,69,-12,-18,-117,283,-944,55,-4,-11,-317,45,-158,32,16,5,116,-106,253,13,-13,6,140,-230,593,2,-1,9,-40,-393,692,-15,0,1,128,-397,1118,-15,13,0,552,-270,806,-4,-8,-14,181,-182,955,0,9,-9,125,-129,677,-1,10,-3,300,-44,373,-12,0,5,224,-30,203,-30,-5,9,65,14,6,-42,-7,16,-36,53,-217,-50,-4,18,-138,97,-368,-47,0,18,-143,127,-473,-40,6,12,-223,168,-470,-25,15,12,-122,140,-419,-17,15,8,-108,104,-300,-8,13,5,-60,41,-203,-1,10,2,-47,-3,-117,-1,4,2,-30,-22,-62,-1,3,1,-41,-13,1,0,4,1,4,-13,11,-1,1,0,33,0,-1,-1,-2,-1,-15,4,15,1,1,-3,-54,-4,13,down
