AccX1,AccY1,AccZ1,GyrX1,GyrY1,GyrZ1,AccX2,AccY2,AccZ2,GyrX2,GyrY2,GyrZ2,AccX3,AccY3,AccZ3,GyrX3,GyrY3,GyrZ3,AccX4,AccY4,AccZ4,GyrX4,GyrY4,GyrZ4,AccX5,AccY5,AccZ5,GyrX5,GyrY5,GyrZ5,AccX6,AccY6,AccZ6,GyrX6,GyrY6,GyrZ6,AccX7,AccY7,AccZ7,GyrX7,GyrY7,GyrZ7,AccX8,AccY8,AccZ8,GyrX8,GyrY8,GyrZ8,AccX9,AccY9,AccZ9,GyrX9,GyrY9,GyrZ9,AccX10,AccY10,AccZ10,GyrX10,GyrY10,GyrZ10,AccX11,AccY11,AccZ11,GyrX11,GyrY11,GyrZ11,AccX12,AccY12,AccZ12,GyrX12,GyrY12,GyrZ12,AccX13,AccY13,AccZ13,GyrX13,GyrY13,GyrZ13,AccX14,AccY14,AccZ14,GyrX14,GyrY14,GyrZ14,AccX15,AccY15,AccZ15,GyrX15,GyrY15,GyrZ15,AccX16,AccY16,AccZ16,GyrX16,GyrY16,GyrZ16,AccX17,AccY17,AccZ17,GyrX17,GyrY17,GyrZ17,AccX18,AccY18,AccZ18,GyrX18,GyrY18,GyrZ18,AccX19,AccY19,AccZ19,GyrX19,GyrY19,GyrZ19,AccX20,AccY20,AccZ20,GyrX20,GyrY20,GyrZ20,AccX21,AccY21,AccZ21,GyrX21,GyrY21,GyrZ21,AccX22,AccY22,AccZ22,GyrX22,GyrY22,GyrZ22,AccX23,AccY23,AccZ23,GyrX23,GyrY23,GyrZ23,AccX24,AccY24,AccZ24,GyrX24,GyrY24,GyrZ24,AccX25,AccY25,AccZ25,GyrX25,GyrY25,GyrZ25,AccX26,AccY26,AccZ26,GyrX26,GyrY26,GyrZ26,AccX27,AccY27,AccZ27,GyrX27,GyrY27,GyrZ27,AccX28,AccY28,AccZ28,GyrX28,GyrY28,GyrZ28,AccX29,AccY29,AccZ29,GyrX29,GyrY29,GyrZ29,AccX30,AccY30,AccZ30,GyrX30,GyrY30,GyrZ30,Label
3,-159,-1,283,-111,162,-26,-2,-14,-166,75,-266,11,38,7,-43,1,-274,6,44,7,-151,288,-134,8,27,11,105,-153,-199,12,24,3,21,116,78,-7,14,-17,-36,-112,17,1,7,7,336,210,-228,14,0,10,91,-205,238,-12,27,-5,-418,28,311,0,2,-6,796,15,-397,-8,16,-2,-893,-90,713,5,-15,10,492,133,-296,-2,-19,-7,-108,-94,92,1,-22,16,-244,-9,174,13,-4,1,45,-75,-168,-9,15,-6,-95,-35,193,-6,-13,-8,130,-36,-156,-14,-21,-14,-53,88,56,7,5,6,-24,-18,-56,-9,-2,-5,-3,112,22,18,1,14,130,-134,-50,-11,-5,-7,-223,73,149,7,1,0,0,-11,-27,0,6,-1,-22,102,23,3,-3,1,171,-133,-125,0,2,2,-85,95,58,3,6,3,-61,-87,-7,-3,9,-3,57,63,-1,1,-9,2,-144,-44,31,left
16,149,48,128,-118,83,1,-3,-2,153,-200,165,0,-47,-28,118,28,-188,15,-37,-9,-247,235,40,-9,-13,-2,145,-19,50,-8,-47,-31,-120,-178,144,-14,-46,-15,334,70,145,-16,-27,7,-52,-81,-186,4,-30,6,-237,296,263,1,-15,17,203,52,-216,-12,43,-4,-187,-88,-55,5,-14,-1,-85,-41,-290,-7,37,-1,-137,107,-9,20,-12,16,-137,-35,-331,6,60,2,-51,-66,164,-1,0,3,234,-50,-319,-5,1,-18,19,118,-100,15,25,17,115,-175,164,-12,3,-9,157,202,-173,2,10,9,-214,-185,360,-8,-7,3,196,102,-457,-20,23,-7,-314,157,253,12,16,12,109,137,-104,5,9,7,-46,-103,184,-5,3,-1,27,2,193,-1,2,-5,281,-235,172,6,-7,-5,107,141,47,10,-31,-2,-19,-79,113,-4,-11,-2,-124,47,-180,-6,-7,-1,-97,-52,229,left
-8,-155,-18,211,-251,60,-24,6,-8,-311,124,12,-1,-1,5,-91,137,-332,12,48,6,-127,174,-75,15,23,22,-70,-108,-104,4,19,-14,183,-20,-356,10,44,15,-432,-10,586,7,5,-3,491,-173,-670,-22,5,-23,-8,200,303,7,7,21,343,-220,-97,-14,-6,-18,142,191,241,4,5,18,-300,-314,386,-9,4,-4,191,83,-103,-7,-7,-8,-134,141,-397,-6,31,-2,-333,314,257,18,6,11,216,-81,-202,9,-13,12,-62,102,223,0,0,2,112,-48,-100,6,-11,7,-58,-179,230,-5,-13,-9,134,-32,-105,-8,-2,-14,-197,-32,200,10,-17,4,156,-7,-72,-7,-5,-4,-162,-23,-3,3,2,-6,-17,56,-36,7,5,2,46,2,19,-5,-6,1,94,33,-27,8,-9,5,-15,-52,-36,-12,12,-3,-85,-19,50,2,-13,3,-12,-12,-80,1,11,-6,-43,82,62,left
-16,-154,-11,230,-127,354,4,31,1,-37,-133,-465,-11,36,-9,-86,302,-59,25,36,17,-196,-20,-185,1,14,-3,90,-60,-148,-5,8,-8,-194,143,130,4,13,14,113,-42,-56,5,13,-1,32,-34,-101,3,-6,-13,97,-4,-53,3,14,11,69,-33,-123,-17,-3,-5,29,113,3,25,17,9,-136,-109,80,-12,9,-6,-28,60,139,-1,14,15,-157,15,111,4,6,10,113,-71,-45,-12,12,3,135,10,3,-8,-7,-11,-2,6,228,10,1,2,113,68,-6,1,-12,-1,-23,-92,145,-8,1,-7,90,36,-50,4,-25,5,-33,-48,213,-3,7,-5,-61,65,-119,8,-20,7,-22,-140,62,-6,-1,-10,-10,52,-15,4,-13,3,-49,24,-45,-2,5,-5,-17,-23,-5,4,10,-3,79,1,-13,-1,-16,2,-135,-19,-19,-1,10,0,0,44,18,0,9,5,139,-10,-9,left
24,165,27,-209,-69,145,30,-1,-2,116,-142,431,14,-36,1,520,-148,260,-8,-125,-34,-542,25,-338,-53,-58,-42,-186,166,568,26,-6,7,51,220,82,9,-47,19,592,-247,-523,-22,-8,-3,-124,24,-119,-2,-23,16,89,42,-146,-27,36,-3,0,-193,-319,-16,-9,-11,-262,329,-101,18,35,14,-236,50,-88,23,14,10,31,-37,-189,-6,15,-15,100,-97,-242,-10,17,-3,-100,84,155,16,-8,8,47,54,-414,-6,35,4,-112,-41,234,4,-11,0,69,73,-372,1,36,8,-89,-1,307,-10,3,-7,114,67,-105,-2,16,11,-186,-6,294,5,1,2,233,-4,-68,11,15,2,-261,-21,187,-1,21,8,331,-118,194,-19,-10,-6,260,-48,174,4,-47,-2,-45,-62,79,-4,-15,-11,-189,53,17,-3,-5,-9,-71,24,-72,-4,12,-3,-30,33,66,10,-15,10,114,5,-19,left
23,144,60,-229,-25,-4,18,-2,4,12,-384,384,-25,-20,-37,115,-42,110,-4,-74,-39,94,152,35,8,-23,-15,-63,260,253,17,-46,0,17,-95,-32,0,-9,-5,461,-15,-19,-20,-98,2,-44,-200,-321,-20,-40,3,-166,125,126,-10,-23,7,-249,69,-332,-19,34,-9,27,20,-449,8,55,8,-331,206,32,28,36,4,21,93,-199,3,34,7,90,-181,-198,5,3,5,36,-14,-93,-3,30,1,245,-99,60,-10,9,-14,-34,91,257,3,-7,9,-189,31,17,3,6,8,166,132,-364,5,12,6,-461,231,256,4,27,14,273,-182,-255,4,32,2,-180,-3,485,-9,-8,5,615,-206,-208,1,-17,-3,-86,-80,568,-18,-16,-26,-38,29,-194,2,-15,7,-61,32,324,7,-37,6,136,44,-377,-4,8,-1,-348,-25,133,-2,-8,-9,86,-20,-73,6,-4,1,-68,27,12,left
30,-153,-21,288,-215,514,-28,-1,-5,-61,-62,-475,-21,25,-7,-135,186,-286,0,43,9,-117,71,-199,26,32,10,-3,159,-117,7,28,-1,143,-166,-150,-6,29,6,-165,185,-29,4,-7,1,13,-138,-230,6,31,7,4,62,210,-14,1,-10,72,15,-4,2,25,6,-164,130,128,11,27,16,90,-45,261,-2,-4,3,130,-145,-69,-4,14,6,114,26,197,-7,-28,1,35,-147,108,-8,-13,-11,-45,91,-6,-8,-10,-3,-93,-14,113,7,3,0,-3,45,-5,-3,-15,-3,82,-44,150,2,-20,1,-77,-12,-121,-3,4,-6,-78,16,28,3,-1,4,48,-59,-13,-1,0,-5,-10,33,36,0,-15,-1,-6,-6,-23,2,12,-1,35,34,1,1,-3,3,72,0,-34,-3,0,-2,-156,21,-10,2,-2,2,59,-28,14,2,8,1,67,-8,-47,-1,-12,2,-55,-42,34,left
25,158,44,-708,23,75,8,14,-7,789,-434,159,-12,-51,-33,-35,394,284,20,-56,1,7,-108,182,3,-46,-13,44,-25,55,-32,-25,-25,146,44,249,6,-20,5,-70,-177,30,-13,-103,9,26,191,-304,-15,-2,4,-87,-85,-146,-24,-24,-21,-26,55,-408,-6,8,0,-61,91,-385,2,59,1,-182,301,-264,49,69,31,-9,-213,146,-5,15,-3,314,-13,-397,8,14,4,-278,214,439,-2,4,5,265,-159,-349,-3,-3,-11,-229,64,259,-15,2,1,172,12,-418,8,21,8,-220,27,398,-9,7,5,126,28,-258,10,38,9,-341,1,667,10,-4,8,646,-122,-320,-3,0,-3,-427,77,365,3,-18,2,309,-194,-216,-27,-9,-23,-182,-13,218,3,-33,4,-48,-6,-129,-1,8,-2,-52,65,122,-4,-4,-1,244,-20,-35,4,-14,-2,-124,21,18,6,-8,1,70,18,-60,left
4,153,41,-379,-5,336,14,-14,13,410,-268,116,4,12,-24,-342,124,300,22,-46,-23,-65,-28,403,10,-70,-18,368,-118,-125,-12,-98,-33,28,-37,-495,-15,-48,-14,-217,318,-58,-11,-15,34,-5,80,-268,-9,6,11,117,-59,-423,-11,22,0,47,-45,40,-5,16,3,-29,56,-507,19,53,4,-220,164,119,5,31,-11,124,-71,-219,7,21,4,49,4,147,1,5,7,35,0,-184,6,22,15,-234,58,258,8,26,22,347,-51,-201,-7,25,-3,-266,55,425,-6,20,5,263,-179,-273,-13,-3,-7,-102,31,631,-12,-22,-7,154,-150,-169,-8,-38,-10,-151,50,325,5,-7,-3,-61,5,-75,-1,-19,-13,-10,22,29,3,0,1,48,77,-28,8,-15,8,58,-38,-35,-3,6,2,-10,42,22,2,2,-1,3,-20,-20,-4,-6,-1,-53,-3,-29,3,3,-1,-14,-12,12,left
31,149,44,-206,-37,13,12,4,24,250,-365,129,-27,-30,-37,-44,-66,358,1,-32,-26,63,222,248,5,-34,-28,98,172,165,18,-60,-1,296,-140,84,-9,-76,-23,-478,47,62,-8,-89,22,44,242,-229,-20,0,7,-99,-110,-315,-7,0,9,94,-148,-335,-20,7,-5,67,-14,-515,-6,60,-11,-110,169,-59,25,36,6,0,82,-264,-1,30,-1,115,-23,-17,10,9,7,-35,-63,-89,-13,12,-12,107,316,4,13,23,22,-180,-261,217,1,-3,-3,42,290,-189,18,42,25,-238,-183,276,-18,-5,-4,124,58,-124,3,19,8,-160,24,228,9,4,3,124,-79,107,-16,-9,-15,269,-48,60,6,-13,3,-72,-70,132,-6,-14,-14,108,-41,51,-11,-20,11,-198,32,180,4,4,-11,37,-28,-162,5,-19,-1,-31,15,57,7,6,1,67,-3,-43,-5,-8,0,18,-10,21,left
26,144,59,-78,-402,12,-12,-9,-18,213,-200,383,-6,-4,-33,-76,184,361,10,-119,-32,-205,158,-47,-5,-36,-8,-138,236,98,26,-89,-13,9,175,2,-16,0,28,190,-245,-196,-36,-67,2,75,-30,-365,-31,31,3,129,100,-240,13,21,-3,-157,-22,-245,5,38,-9,-9,80,-326,20,39,4,-86,45,92,10,22,2,219,-61,-353,-16,19,-1,-34,108,217,15,-3,9,85,-23,-274,-9,26,1,-131,110,270,12,-9,12,80,118,-265,7,20,4,-329,-100,336,4,33,14,128,168,34,-11,9,-2,-5,-261,280,4,-15,1,-90,17,139,-6,-8,4,146,-136,-16,-12,-9,-13,-202,-20,198,16,-8,2,259,-22,-195,-15,2,-17,-56,43,113,3,-16,-1,-60,-8,-68,-1,-2,2,5,35,117,3,-6,3,82,-38,-122,2,-1,-3,-92,8,20,2,0,6,70,3,26,left
21,-158,-10,-125,-31,701,-22,0,2,433,-247,-327,-32,-1,-14,-109,80,-429,-5,43,-4,-202,157,-360,24,58,6,-167,182,-1,19,17,13,210,-98,-199,-6,23,-3,-91,26,-101,-3,23,2,-118,87,-71,4,25,13,175,-72,158,11,-2,-7,95,-4,-238,-31,25,2,-128,51,433,16,-5,-6,248,-92,-120,-8,9,6,-303,269,350,22,11,20,61,-161,-4,3,17,-7,44,-40,33,-18,-1,5,180,-34,95,1,-40,-10,135,-108,138,4,-25,-3,-187,51,-56,-8,-8,-6,-86,-3,16,5,5,-1,15,-9,-5,0,-13,-4,-30,-42,86,1,-12,0,-24,63,-127,-4,5,-2,-33,10,25,2,-5,5,-5,3,0,9,3,3,24,10,-33,-2,5,-1,35,-53,12,-2,-11,-4,-62,-16,-5,2,3,-1,53,-3,-65,-3,3,-2,-32,20,43,3,-4,4,-34,-16,-5,left
13,146,59,-859,-119,-25,1,75,-14,877,-81,6,2,-74,-39,-244,14,180,20,-27,-8,653,148,578,4,-63,-11,-491,-165,-117,12,-43,-8,121,250,405,-12,-83,1,422,-289,-376,-33,-74,-4,-188,80,78,-9,-25,11,-20,-85,-167,-18,0,-6,-55,49,-523,-21,13,-12,-78,88,-386,14,64,1,-363,259,-97,23,53,9,156,30,-179,13,36,8,74,-68,-25,1,9,4,231,75,-4,8,13,10,-221,37,-5,-4,11,0,-70,32,46,0,6,14,31,47,101,-4,16,-1,-196,-123,183,-7,28,-3,252,-64,-125,4,18,4,-261,-4,573,-4,-12,0,514,-29,-351,-3,-24,3,-304,-174,523,-16,-29,-11,312,70,-365,13,-6,-3,-152,61,136,7,-17,4,-155,-35,-166,3,7,-3,-67,-22,111,-10,-9,-6,45,35,21,3,9,2,73,-16,-43,0,-8,-1,-55,27,29,left
-9,-154,-24,379,-138,223,-3,-3,11,-129,-7,-274,-3,39,-9,-327,170,-323,27,63,17,-175,91,65,4,16,-3,395,-211,-544,-3,44,-2,-209,166,356,8,-15,13,322,-132,-405,-11,33,-10,-164,10,504,-2,-12,-4,201,82,-423,-7,20,3,-366,151,530,3,7,8,98,58,-225,10,32,16,-84,0,332,-2,-4,8,142,-257,-7,-6,-4,-11,-61,101,197,-4,-21,1,68,-155,-206,-2,-6,-3,-135,66,273,-3,-10,-7,100,-88,-144,2,-9,3,-102,49,175,2,-11,-4,98,-34,-59,-6,3,-6,-29,71,35,6,-9,0,71,-39,-94,-1,-1,2,9,41,59,2,-6,-2,-19,5,-52,-2,0,0,-90,-8,6,-3,6,1,95,26,-41,8,-1,0,20,-8,-2,-6,3,0,-84,-4,23,6,0,0,105,-3,11,-5,1,4,-29,-2,13,4,-6,-1,-100,-53,-36,left
-5,150,40,-360,-22,106,18,-5,7,261,-168,352,3,-10,-35,233,168,-99,33,-98,-9,88,-57,273,-26,-17,-18,124,-246,-27,-8,-71,-31,-643,297,332,28,-72,16,260,-165,-137,-38,-26,12,216,78,-421,-22,26,7,-232,52,-166,-1,15,-10,149,-22,-426,-14,34,-8,-212,156,63,35,28,18,15,210,-299,1,32,-9,118,-220,-55,1,-4,4,13,134,-41,1,6,-1,147,-39,-299,3,33,14,-118,95,177,-2,8,-2,29,-34,20,13,22,15,-246,75,164,2,29,13,147,-63,38,-7,6,-4,-203,2,58,1,10,8,255,-171,219,-6,-16,-7,-30,5,83,-6,-19,-2,35,-180,113,-4,-24,-9,-9,108,38,1,-4,1,135,-102,53,-6,-18,-17,-35,83,-10,2,4,0,-62,-2,-44,3,-1,2,75,80,93,-4,-12,-3,-78,-43,-105,-7,0,1,-32,76,14,left
20,163,44,-741,29,-101,20,-2,12,1120,-572,206,-24,-39,-38,-279,369,471,30,-75,-26,-372,33,229,-19,-66,-31,45,29,-19,2,-60,11,-85,187,258,5,-20,25,316,0,-297,-6,-53,11,92,-92,-153,-10,10,4,159,-275,-581,-17,2,-13,85,30,-155,-17,46,-14,-315,188,-92,34,19,8,91,208,-226,10,32,10,-81,-225,-203,-1,30,-5,-58,141,-163,2,14,-2,13,-169,292,-18,11,-5,110,222,-214,2,16,10,-257,-79,416,-2,16,13,533,0,-393,-7,4,-8,-629,79,909,18,12,10,495,-147,-403,2,-12,1,-513,90,561,10,14,16,510,-53,-627,-19,-18,-19,-423,60,304,7,1,7,181,-168,-163,-14,-20,-14,85,7,203,1,-16,0,-155,-28,-99,-3,-7,-4,23,72,38,7,3,0,135,35,45,1,-9,0,-69,10,-33,-2,7,1,-51,-18,-24,left
17,141,62,-145,-138,-333,-17,-13,-43,-305,70,490,13,9,-8,692,23,104,7,-78,-43,-49,-198,120,-3,-63,-3,-233,278,509,40,-82,16,474,-187,-313,-28,-47,-9,-200,33,-78,-13,-50,16,-268,77,-118,-12,66,-8,88,-28,-225,-1,-19,2,26,-6,-214,-8,42,-3,-125,47,-218,18,27,4,157,204,-181,16,26,8,-27,-180,-264,-8,28,-1,-218,240,318,-1,15,-2,128,-158,-369,-5,22,1,-12,45,117,-10,-3,5,22,233,-6,3,24,24,77,-337,-87,-18,-5,-22,-86,181,391,32,25,25,-140,-215,129,-16,8,-12,266,-104,338,17,-32,12,53,106,-258,5,-4,-6,-7,43,119,0,-13,-2,-100,-155,-47,-19,1,-13,1,80,135,-1,-14,-4,-7,-21,-118,-2,-6,6,46,-39,160,-6,-12,-3,10,-6,-32,3,-6,-1,-35,74,-45,5,0,-1,-69,38,-25,left
34,146,41,-272,-133,-189,5,24,-25,372,-107,740,-11,-102,-21,-70,123,-270,-7,-67,-25,-4,-36,451,-3,-67,-3,257,-267,-257,-13,-79,2,14,121,-52,-24,-2,-1,-93,104,-91,-16,2,14,-103,98,-135,-1,27,4,-12,-18,-306,8,30,0,-175,242,-125,18,28,10,-95,-132,-97,5,28,-3,21,131,-189,-1,13,-7,192,-196,32,-1,24,9,31,138,-165,-1,22,1,108,52,287,22,15,15,-205,34,-219,-18,24,1,-42,180,369,7,28,13,396,-521,-133,10,-15,3,-521,451,331,-13,7,0,312,-255,-73,-4,-34,-11,-193,103,137,6,-13,-3,170,-113,-204,-3,-2,-6,-24,-49,209,-5,-20,-8,10,77,-109,5,4,5,-60,-61,85,-5,-7,-3,140,-29,-8,1,-10,2,-65,40,-23,0,2,-3,-43,-6,28,0,-9,-1,8,-13,-80,0,12,-2,-39,54,51,left
7,156,26,-209,-73,-209,1,-57,-26,54,103,98,13,-59,-1,225,-120,491,-7,-25,-2,87,-139,200,3,-73,-2,-135,190,280,-3,-37,-3,-67,56,-77,7,-49,8,113,-185,-114,-21,3,-3,184,-117,-397,-28,-5,-12,-69,50,-446,-10,47,-6,-196,200,-232,36,34,20,-132,35,-165,-4,42,-10,233,-4,-292,4,25,6,-102,12,460,8,6,10,364,-125,-305,-13,11,2,-247,114,242,11,7,10,-306,-82,97,-25,27,-1,-46,33,52,3,17,-1,212,124,5,0,3,4,-135,44,343,13,1,18,546,-22,138,-1,-39,-19,-113,-24,-136,9,-1,2,-70,-46,-216,-13,-8,-3,-247,-7,127,-1,0,-4,85,-105,7,-5,-14,-3,37,74,68,3,-4,-2,-38,-7,-25,4,-9,1,-35,-10,37,4,-3,-4,42,-57,-43,-2,5,-4,10,29,-33,-2,-6,0,65,54,46,left
24,155,38,-526,-24,-519,-6,49,6,677,-224,631,6,-72,-11,-340,206,-174,22,-42,-19,525,-74,753,5,-73,-21,-69,-203,122,-12,-116,-21,-568,101,-66,-19,-32,-6,199,86,-108,-23,-42,2,133,-5,-347,-4,17,9,-254,150,156,-10,-3,6,386,-270,-598,-16,12,-16,-322,144,-201,27,71,9,-106,402,-13,40,43,19,308,-439,-68,-15,15,7,162,139,-103,-14,3,-17,-434,217,-20,1,32,26,102,-160,-39,-13,15,-20,-93,234,206,36,39,19,-348,41,173,-3,31,14,609,-216,-64,-5,-12,-3,-379,-127,215,-21,-8,-6,129,-30,-11,0,-33,-2,179,57,-128,21,-24,8,-355,-50,155,-14,3,-15,285,-49,-55,0,-3,-7,12,82,47,1,-10,1,22,60,54,6,-6,7,-42,-18,23,-9,1,1,-1,-37,-20,-2,-1,-5,50,13,-89,7,2,5,-23,13,85,left
34,162,5,236,34,280,-9,-78,-9,49,-346,175,19,-84,2,-231,286,454,-14,-63,-14,196,-302,-291,-12,-69,-4,-273,303,106,3,-21,14,338,-284,-411,-32,-1,-18,81,10,-182,-21,2,-4,-394,207,-286,3,45,6,-196,61,-181,17,40,-2,69,81,-252,16,38,12,-4,-151,140,-4,-3,-7,258,74,-430,-10,37,-5,-242,103,295,37,17,34,62,-7,-117,-10,9,-5,-62,21,167,7,31,11,38,7,148,-5,3,2,-160,-133,164,-15,11,-4,269,5,11,-6,-18,-6,51,-92,156,-12,-18,-13,60,36,-53,6,-9,4,-240,34,144,-5,-1,0,171,-29,-27,3,-22,4,-124,19,64,-1,-3,-2,30,29,-5,7,-10,0,15,-54,-48,-7,7,-6,-20,98,47,7,-11,1,83,-80,-168,-5,2,0,-81,73,88,6,-3,5,84,-33,-54,-3,3,0,-38,-13,65,left
14,153,26,-202,83,111,15,-3,14,-74,-338,-73,-16,-12,-30,144,86,328,6,-71,-10,417,115,25,-16,-33,-26,-66,61,151,32,-86,7,-397,96,326,10,-25,-2,297,-264,-82,-26,-66,-12,-97,133,-325,0,-12,25,67,-126,-178,-30,-18,-13,173,-243,-599,-25,50,-8,-348,317,-80,35,38,23,-133,51,-225,12,55,-14,144,-18,-33,-8,33,-3,23,40,-54,-10,31,0,183,97,313,0,18,15,0,79,-70,7,16,14,27,111,137,13,22,20,-253,79,-2,13,-8,5,-160,-166,11,-14,-2,-6,104,-142,310,-9,-24,-16,121,-68,-159,-3,-19,-6,31,-40,321,-3,-20,-7,-31,44,-118,2,-1,-3,-26,18,87,0,-6,0,71,9,-60,5,-14,3,-2,5,-29,-3,5,1,-13,35,25,5,-5,5,-62,-45,-112,1,11,-1,-16,1,37,-2,-3,-1,92,-30,-10,left
14,151,50,-730,-16,100,18,54,-3,640,-265,168,-16,-23,-40,22,227,67,17,-91,-27,644,92,-31,-31,-52,-21,-306,-334,341,-5,-153,-13,-201,261,365,30,-43,31,-175,312,-69,5,-14,19,85,-256,-407,-32,8,4,242,-242,-373,-9,32,-15,-177,60,-386,-5,46,-4,6,106,-144,14,19,5,-253,121,-29,5,19,-1,322,-111,-452,-4,27,2,-392,167,447,8,6,1,201,-169,-273,-21,17,-16,-140,153,236,16,36,23,168,189,-300,3,28,15,-538,107,391,14,50,19,537,-129,36,-1,-11,-14,-113,-185,195,-18,-21,2,225,-134,72,0,-33,-7,-95,-68,239,-12,-10,-12,-40,131,-220,-2,-16,-1,-96,-100,158,-2,1,-3,164,143,-49,4,-15,4,36,-32,53,4,-5,-3,-134,72,-43,9,-1,4,59,-70,-61,-5,-3,-4,27,27,24,6,0,3,-54,18,-2,left
-1,155,34,-207,-254,-221,2,31,4,409,41,89,9,-60,-15,-398,-178,229,25,-57,-17,273,119,521,-17,-102,-27,224,3,-30,-34,-65,-24,-415,334,321,22,-27,18,-49,-7,-224,1,-20,9,190,-108,-226,-12,-21,4,103,-151,-285,-28,23,-3,-158,80,-424,0,21,-6,100,103,-414,23,66,16,-271,159,44,14,23,-9,415,-72,-413,-7,51,7,-140,19,283,22,10,15,146,27,37,-10,13,2,-82,15,50,2,23,12,-231,-4,318,-2,24,0,-11,-89,58,-8,0,-10,103,-108,135,-9,-11,-4,65,43,141,-4,-44,-2,-81,-153,-64,-2,-7,-1,30,112,175,4,-14,-2,31,18,-166,3,-3,1,7,-33,161,1,-17,-3,16,29,-103,-2,-3,1,-65,0,-1,-1,8,-4,41,35,4,4,1,2,8,-24,-42,-2,-8,3,-5,21,44,2,7,1,-55,-39,-66,left
18,157,51,-402,-110,-6,-27,-19,-25,206,-92,-88,4,-8,-18,166,280,428,6,-76,-37,369,-283,-19,25,-97,-17,-163,294,559,23,-24,37,112,-219,-127,-27,-58,-12,97,-17,-87,-22,-25,1,-384,79,-98,-14,-18,5,260,-151,-520,-23,11,-21,-448,174,-305,9,59,13,-7,183,-2,31,24,6,122,-126,-543,8,62,4,-215,18,584,6,5,6,528,-69,-740,-22,59,2,-352,163,616,10,-1,11,149,66,-206,10,52,9,-273,146,335,2,18,16,336,-241,-53,-6,-11,-6,-6,-73,522,-6,-40,-7,427,-219,-188,-20,-40,-15,-654,171,50,2,5,-6,172,-10,-68,1,-16,-3,-40,53,130,7,-13,3,55,5,-67,1,-8,0,-14,16,44,3,-6,-1,13,-6,-141,0,9,-1,16,32,93,2,-6,6,-37,-5,-95,1,4,2,-54,-59,-26,-1,10,1,22,-9,5,left
2,164,-12,19,73,170,6,-65,4,-33,-68,591,38,-56,10,577,187,205,-24,-83,-39,-123,-311,-188,-18,-106,4,-349,183,7,30,-20,18,286,-170,-265,-31,20,-16,257,-16,-235,-14,-12,-1,-485,88,-256,1,45,3,-180,-63,-157,29,29,16,-148,130,-232,8,40,-7,252,-270,34,-15,0,-2,-157,213,-286,2,40,17,-92,8,161,-12,21,-8,246,36,-255,-9,27,16,-258,102,270,-3,6,-1,325,-5,-224,1,17,-4,-470,161,572,5,10,4,520,-62,-413,6,-6,8,-412,-45,656,2,-22,2,430,-238,-347,-12,-14,-10,-209,112,336,2,-28,-3,90,-124,-58,-4,0,0,-81,93,20,-1,-14,-9,-33,-16,-38,5,6,1,66,35,41,-4,-9,-1,-38,30,-84,8,1,7,3,-38,-33,-4,4,-1,-3,28,71,1,6,0,15,-59,-90,-4,-2,-3,-20,39,53,left
41,-150,-7,135,-107,550,-27,-25,-6,244,-364,-555,-34,4,-6,-245,155,-123,-2,55,-5,-172,279,-210,30,39,12,-99,10,-134,8,43,1,188,-141,-72,-2,26,0,-45,53,103,-11,28,10,86,186,119,-7,11,-5,20,-46,-109,2,49,16,-363,394,44,14,41,16,197,-217,18,5,-1,10,54,-13,244,-5,-32,0,52,-210,201,-17,-40,-22,21,-105,12,1,-22,-9,-42,85,-69,6,-12,-3,47,-7,55,6,-18,1,43,-2,-32,-6,-4,-8,-114,52,40,3,-4,9,56,-31,-100,-4,16,-4,-104,47,-11,8,0,8,41,-11,14,-4,-11,0,104,2,10,0,4,-2,-77,-45,-41,-3,9,-6,-34,-6,12,-1,-8,1,87,15,7,1,1,3,-61,12,4,-3,9,-5,31,25,34,2,-5,1,11,-4,4,0,0,-1,8,39,-5,5,-12,3,-19,-62,-73,left
3,157,31,-546,-21,-7,7,4,-5,270,-283,-1,0,2,-22,-130,208,53,22,-44,-6,742,-271,598,-30,-154,-19,170,166,537,-20,-134,-10,-883,542,11,61,-20,35,485,-232,-328,-35,-11,-1,242,-498,-738,-39,27,-29,-54,52,-242,8,64,10,-372,279,-10,12,33,-21,157,211,-351,19,60,29,-118,-90,-54,-15,17,-14,177,9,-183,3,41,10,37,304,267,10,22,19,-117,-31,-197,7,62,3,-383,58,882,17,-10,20,759,-283,-606,-21,-22,-8,-524,-13,573,-5,-29,-4,159,-290,-305,-15,-8,-17,-139,181,362,0,-25,-1,23,-55,-173,5,-8,5,-98,80,160,3,-12,-1,57,-52,-113,4,-2,1,1,5,21,0,-2,-3,69,5,-63,4,-3,1,8,-41,33,2,-3,-2,0,-31,-85,-6,4,-3,-38,90,89,-3,1,0,85,-37,-21,-2,-5,-2,-12,26,-55,left
9,160,37,-670,113,-366,4,-2,17,405,-291,-36,-13,43,-24,-2,43,489,47,-93,-3,574,-123,206,-22,-69,-42,38,214,610,-1,-103,-34,-102,45,289,22,-107,0,-260,148,9,11,-36,31,-16,-270,-670,-29,31,-2,190,-187,-340,-34,0,-10,122,-69,-446,-7,46,9,-572,338,111,36,54,-4,237,-90,-134,-17,56,-9,120,119,-301,-5,39,22,-31,329,-80,10,21,16,-212,115,-326,24,95,27,-241,61,172,4,13,7,289,-243,312,-15,-20,6,174,-182,234,-16,-76,-17,29,-267,208,-10,-17,-15,-212,219,-15,5,3,-8,51,-106,63,3,-20,-3,72,36,147,-6,4,-1,92,80,-97,2,-24,-6,-107,-16,57,-3,7,1,-16,83,23,8,-10,5,-103,-61,-80,5,15,2,30,17,50,-2,-1,0,-62,-28,1,-1,3,4,197,-4,-44,-2,-6,4,-60,-9,-26,left
4,168,41,-112,-149,-733,-1,57,-15,126,147,246,41,-57,5,216,-339,364,-22,-72,-45,141,135,883,-9,-134,-23,-702,105,427,27,-100,-18,222,606,195,28,-45,35,285,-580,-541,-44,-40,-6,3,-255,-409,-36,11,5,185,-102,-631,-14,50,-17,-411,391,-215,37,85,15,-225,23,-57,5,45,-6,644,-194,-122,-13,19,0,-137,213,114,-2,33,6,-24,171,-99,-4,23,9,-103,151,10,1,18,6,-128,33,26,6,14,21,-215,-13,391,-5,-17,-8,237,-247,-161,13,-3,10,-283,98,359,-3,-15,-4,422,-195,-270,0,-10,-3,-334,75,228,0,-9,-7,133,-160,17,-9,-9,-13,0,128,10,10,-12,2,49,-58,-45,-6,-2,-5,40,42,23,-2,-4,1,-63,-33,-59,3,-1,5,-27,79,87,-1,-3,1,-19,-96,-89,2,10,1,66,81,82,6,3,1,22,-102,-66,left
-10,164,23,-383,33,-112,25,-36,9,378,-294,134,-5,29,-26,-112,236,483,14,-117,-27,137,-29,58,-5,-43,-15,77,299,692,28,-87,11,270,-283,-345,-15,-112,9,-295,-157,-275,-31,19,2,17,119,-81,0,-20,1,516,-309,-749,-23,52,-21,-600,276,-29,17,72,9,-121,217,-305,-2,37,3,205,-198,-18,-12,27,3,11,134,-88,7,12,7,-77,163,172,2,26,5,-172,167,-153,10,11,12,-252,-143,239,0,43,3,208,-3,-128,6,2,8,136,-80,374,-13,-22,-5,205,-122,7,-5,-36,-6,-114,-3,34,0,7,3,-33,-20,164,-2,-21,-3,-88,-72,29,-3,3,-5,53,91,13,3,-11,-1,-38,-34,17,-8,-3,-6,81,89,-58,11,-9,6,-65,-26,-23,3,4,2,39,-1,19,-6,1,-8,37,-10,-80,-1,-3,0,-9,28,31,5,7,5,69,-15,12,left
21,146,53,-206,-339,-294,-2,38,-22,-177,199,365,5,-60,-24,823,-292,224,2,-101,-22,-41,305,513,-25,-79,-28,-76,28,-262,14,-95,-5,-744,324,457,10,-5,18,290,-283,-443,-14,-30,0,102,-117,-121,-21,10,6,206,-126,-555,-28,20,-11,-295,196,-260,21,51,15,-343,175,82,23,39,-10,201,-16,-345,-11,57,12,123,16,207,13,16,4,238,11,56,-7,30,6,-145,191,-47,16,35,19,94,30,16,-8,-5,6,-421,10,382,7,18,7,167,45,-198,3,-5,-5,-362,-385,231,-15,-4,-11,499,80,-68,14,-29,5,-153,-83,117,-6,-21,1,-31,-142,-39,-8,-5,-7,-2,89,66,5,1,-3,211,30,-12,3,-1,-2,18,-17,16,4,-9,5,191,-16,-47,-12,0,-10,-50,-20,21,-4,-12,3,-109,-34,-97,-10,3,-4,-91,98,46,-1,-3,-2,-62,32,-86,left
36,163,58,128,-137,-697,-30,-24,4,111,-335,816,0,46,-23,-554,338,145,24,-57,-27,610,-177,428,-11,-75,-53,-242,567,619,32,-99,0,-241,43,239,23,-102,12,522,-246,-605,-5,-72,41,-262,-116,-246,-27,14,-1,59,-336,-601,-40,25,-32,144,106,-449,5,53,12,-350,263,-189,38,69,0,253,-238,91,-23,26,-8,18,182,-300,4,42,14,-82,162,54,-10,26,0,-128,122,-272,4,44,18,-406,70,307,-13,27,1,247,-17,-55,3,24,5,-103,-1,302,-10,-9,13,187,-144,380,-1,-14,-10,306,46,100,21,-40,7,-95,-181,279,-8,-28,-18,280,-16,-80,0,-35,-11,-206,20,-19,2,-9,10,-124,46,-36,2,4,-2,6,-29,-150,-4,8,-3,-42,8,27,0,-4,1,34,-33,8,-3,5,-4,-29,93,51,3,-2,1,25,-74,-74,-2,1,-2,1,55,12,left
3,163,55,-486,-67,-273,6,10,3,408,-214,437,16,-2,-39,-486,334,235,32,-101,-32,735,-188,545,-8,-61,-18,334,-81,266,-30,-160,-18,-296,-20,-688,-11,-8,7,-256,332,234,15,-50,48,-16,-217,-577,-34,41,-15,150,-128,-148,-17,-1,-2,-122,94,-538,9,73,8,-315,267,111,31,36,0,112,-117,-573,4,73,-3,71,63,508,1,-10,6,443,-177,-552,-13,50,1,-250,151,814,18,-20,5,138,-89,-286,-27,30,4,-237,124,510,27,-3,6,67,-31,-413,-20,18,2,-192,61,517,3,-18,5,375,-103,-592,-6,-9,-2,-336,-75,512,1,-21,-3,222,-22,-248,-12,-4,-8,-185,51,241,5,-16,-3,146,-46,-78,-7,0,-6,-25,105,135,9,-21,2,-26,-58,-127,1,18,-3,-25,56,82,2,-14,4,52,-66,-88,-2,9,1,41,73,80,-2,-7,-1,33,-45,-74,left
28,153,52,-497,-179,-348,-21,26,-35,466,103,70,17,-30,-15,-152,-175,492,-3,-74,-30,427,386,389,-1,-70,-8,-132,-358,186,1,-105,-2,-568,77,309,-7,-52,17,570,109,-457,-2,-33,31,-142,-34,-59,-24,17,-7,227,-68,-560,-23,7,-13,-315,100,-259,23,61,14,-180,162,-118,24,35,-6,257,-210,-290,-2,41,-10,-70,-101,104,-4,39,4,298,104,-75,3,12,-1,-243,114,23,0,48,12,-257,309,207,12,4,17,66,-259,43,-20,16,-3,90,112,105,11,-23,-1,17,-186,265,-13,-12,-12,118,31,-50,11,-31,6,-183,29,211,-11,8,-9,216,-149,-197,-9,-22,-11,-108,80,60,3,-8,10,-40,44,34,5,7,7,25,-54,-73,3,-10,0,-8,-24,90,1,-2,-1,35,8,-113,0,-1,-6,-50,22,84,0,11,0,72,-12,-55,-1,-5,-1,31,31,-17,left
3,-155,-25,173,-215,505,-23,-13,10,76,24,-151,2,-19,-1,-290,110,-282,-22,40,-9,118,-63,-471,10,25,4,-34,113,-193,31,45,8,-154,123,-97,-3,40,-1,-77,-59,38,19,34,11,271,-45,-146,-4,19,6,-300,224,149,-7,46,17,-38,20,8,0,5,-1,376,-223,-86,-4,0,7,-202,150,590,-4,-21,-13,-107,5,-78,7,4,4,-114,-159,425,-38,-28,-30,299,-72,-268,15,-6,19,-221,151,364,4,-5,-3,252,-67,-262,6,-8,3,39,23,139,3,-20,3,-97,-65,-42,2,-2,-3,100,35,-174,6,-1,1,-67,-53,1,-7,2,-4,34,8,41,-3,-8,-1,-51,1,22,-2,1,-5,-65,48,35,6,15,3,32,-39,-117,-2,-8,0,-20,24,83,-3,6,-3,12,-26,-57,2,-6,3,-46,-8,32,1,11,3,3,38,25,2,-13,1,25,-13,-17,left
8,166,20,-5,18,-102,18,-44,28,-182,-357,398,-8,26,-29,-10,257,320,15,-68,-25,406,-216,-142,-39,-73,-36,40,352,480,41,-108,12,-379,23,-132,3,-14,10,405,-75,-226,-28,-60,6,-166,-199,-302,-28,-11,-10,17,-22,-369,-9,56,-6,-246,195,-334,18,40,-3,122,123,-175,19,58,11,-11,-59,66,2,27,1,335,-140,-59,-7,42,11,-32,170,13,7,0,22,-101,37,182,-10,39,-1,-282,187,21,18,4,22,144,-190,-61,-25,-4,-18,-274,31,470,15,-23,1,45,-113,-248,-14,6,-12,-73,-11,224,8,-22,-1,277,-81,72,-2,-9,-6,-47,26,5,-2,-11,-1,118,44,-99,0,-2,1,30,-20,41,-4,-15,0,24,7,20,2,0,-3,-44,7,-138,9,3,-3,-127,49,87,2,2,1,27,-4,22,-8,-8,1,-49,-6,-3,-1,-4,4,48,-4,-74,left
17,161,20,-134,-210,-176,4,39,13,410,-104,518,3,-116,-11,-386,5,95,-17,25,-20,281,325,469,18,-110,-18,-166,-227,228,-15,-155,-45,240,150,-328,37,4,32,-147,161,-8,4,-29,20,-12,-537,-536,-60,-22,-32,34,-7,-503,-5,73,14,-264,403,-143,12,44,-2,-17,10,-170,20,69,13,37,-8,211,-5,30,-8,426,-29,-494,-8,45,6,-312,347,440,11,23,26,168,-16,-64,-3,11,5,-188,45,183,5,-11,21,106,-239,2,-19,-14,-17,-348,-33,270,13,1,2,246,-31,-367,-13,-12,-15,1,-47,356,0,-22,-7,-178,79,-25,6,9,0,153,-2,19,7,-16,13,-15,-9,65,1,-7,4,120,-62,29,-5,-1,-9,-101,-74,-19,-5,3,-12,58,118,85,11,-13,2,39,-6,-25,-1,-6,-2,-179,-30,47,-1,6,-5,-269,149,214,11,12,12,213,-144,-270,left
17,158,21,-316,-7,-517,-22,102,4,515,21,598,22,-149,23,125,-304,-206,5,-12,-41,-141,192,1071,-6,-132,-18,51,-287,-154,-28,-42,-40,385,383,-4,14,-72,-4,-381,294,4,42,-27,46,-295,-134,23,-32,-27,5,746,-663,-1030,-55,5,-13,-217,60,-195,14,40,-8,-372,385,-267,20,93,10,-169,-136,91,0,65,-6,597,62,-203,-7,26,-1,-133,302,249,-2,19,21,-347,38,-95,21,36,18,-65,57,70,-2,27,19,136,-151,465,-27,-35,-30,-227,-78,123,29,0,10,354,73,-221,-23,-11,-23,3,-89,221,9,-53,20,-246,-21,-54,-6,10,-8,219,63,-74,3,-10,6,49,-84,7,-1,-14,0,-125,5,7,7,7,-1,-5,-6,21,-3,2,-8,-29,-47,-11,-1,2,-6,-34,26,29,-4,-2,-3,151,30,3,2,-2,4,-52,5,-38,0,3,6,-66,5,51,left
27,-152,-18,-6,-7,848,-8,-10,-3,-19,59,-216,-10,-29,1,340,-186,-542,-32,17,-27,260,43,-339,-13,4,10,-616,169,-234,18,72,10,-132,158,-145,35,59,19,-146,-109,225,-3,37,2,592,-155,-446,7,36,12,-463,80,284,-1,36,12,289,47,-134,-10,9,4,-329,66,250,-7,-3,-3,431,-251,-120,-24,-20,-21,-227,143,324,10,-10,1,171,46,131,8,-15,-2,-122,-66,141,-6,-15,-3,85,14,97,11,8,2,-80,-26,187,8,-19,12,190,-112,-52,-7,-20,3,19,21,-266,-7,1,-6,-216,26,-84,2,12,-4,-109,-10,19,-1,3,-3,180,21,-45,-7,5,-8,59,36,77,5,-15,6,-75,-54,-23,-1,6,2,-11,56,10,3,4,-2,-114,-28,17,2,6,4,79,21,19,-3,-6,-1,56,-27,-31,0,3,-1,9,13,42,-3,0,-2,-19,19,-40,left
19,-155,-19,389,192,658,-8,-32,20,-51,-323,-511,-18,-16,-10,-365,18,210,-24,9,-13,164,-121,-491,5,38,-1,-386,237,55,23,51,10,159,-155,-223,8,51,-4,-204,107,187,6,40,12,280,1,-198,-16,18,-1,208,-46,-329,8,15,15,-227,293,181,2,15,5,-257,12,-165,22,48,21,105,161,180,-18,-14,-9,253,-457,84,-17,-10,-14,-337,177,387,5,-24,0,593,-386,-183,-18,-9,-21,-146,281,369,11,-31,14,-42,-207,-68,-8,3,-7,-56,244,-5,8,-16,11,-44,-82,-113,-4,15,-2,-87,78,59,1,-4,-7,154,-98,-36,-3,-13,9,28,34,-20,1,2,-6,-87,56,-40,9,5,1,-93,-45,44,0,1,-3,155,-4,-31,-6,-8,-2,-104,9,27,0,-5,0,-53,-29,-45,2,10,1,-36,69,48,3,-5,-2,141,-30,-22,-9,-4,-3,-32,42,-32,left
19,143,57,-817,132,628,36,-20,-29,1349,-368,400,-17,-145,-40,-3,-44,-351,-12,-59,-32,-173,229,203,6,-57,11,-155,-130,-411,-15,-14,-3,-312,2,-23,-6,-5,6,122,-28,-352,-29,25,1,53,66,-327,11,31,21,-170,154,-83,20,54,3,62,-133,-109,-2,22,-1,106,51,-237,-13,44,3,-19,173,138,7,1,16,159,-42,-92,3,17,3,-427,221,292,3,39,5,435,-113,-338,10,-3,1,-551,-21,859,-7,8,5,603,-122,-455,2,-29,-14,-363,-180,438,-3,-15,15,236,127,-230,-14,-5,-16,-179,-117,244,-7,-24,-4,4,60,-92,2,-11,-4,-115,37,30,4,14,-1,91,61,-26,6,-12,5,11,-26,-38,6,1,3,59,2,24,-4,1,1,-29,-43,11,-5,-13,-2,81,-10,-48,2,9,-5,-54,28,-80,2,1,-2,-25,0,32,11,7,-2,-69,36,88,left
1,155,36,-233,-220,-59,-3,-16,-22,282,113,314,26,-36,1,-308,64,232,-1,-24,-24,888,277,-303,4,-91,2,-431,-586,376,-26,-54,-21,-281,428,137,6,-70,29,491,-188,-414,-10,-33,-8,-256,-37,-114,-21,-5,-9,-42,-53,-286,-9,45,-11,-40,112,-287,28,21,15,-162,102,-103,4,73,8,248,-187,-31,-6,9,-4,172,49,-104,-8,51,0,44,66,249,25,7,11,-110,288,68,-7,11,17,11,-205,94,-5,9,-2,-274,-19,-99,-28,3,-4,139,-142,247,28,-4,29,-84,13,-222,-21,-15,-25,-101,151,143,5,-24,-3,26,-50,27,-4,12,0,-177,107,77,8,-14,2,317,-158,-25,-6,-17,-10,-83,54,23,10,0,0,-76,-39,15,-5,-2,-7,59,70,-29,2,10,1,66,22,23,3,-9,2,27,-14,-65,-1,3,-1,-37,-38,52,1,3,5,87,-20,42,left
24,157,36,-700,-140,-223,-5,6,-27,633,-34,132,1,-72,-5,113,190,519,7,-76,-8,-134,-206,278,-16,-69,-20,48,182,121,-6,-83,5,87,80,-207,5,-34,20,-136,29,16,-16,7,-8,137,-330,-477,-19,2,-29,270,-29,-381,-5,59,-10,-282,329,-27,31,9,9,-142,-17,-220,4,72,13,145,-112,201,13,2,20,-59,175,-326,-11,36,3,-97,-166,175,2,11,7,-107,258,-153,0,27,15,1,-141,160,-12,7,-22,-53,128,120,12,11,20,-6,-79,151,-19,-6,-13,149,72,-175,22,8,7,-168,-135,361,-4,-26,0,304,7,-142,-7,-16,-7,-63,-77,106,7,-13,0,-59,35,-35,-2,2,-7,-22,-16,39,-1,-2,2,229,9,-10,-2,-18,-3,-86,18,-11,7,-6,1,-86,-23,27,6,9,-4,39,71,17,-3,-1,1,-48,-69,-140,-6,-9,1,-55,-26,69,left
17,-163,-16,-41,164,692,-6,17,10,76,-276,-403,-15,-8,-14,246,-43,-366,-17,16,-11,-114,144,-239,29,44,23,-358,61,-58,20,51,-2,351,-142,-321,-3,51,-2,-192,95,276,-4,19,6,357,-126,-81,-8,9,4,-158,226,128,-10,11,11,148,-180,-172,-11,11,-10,-482,331,682,-6,4,3,257,-100,-517,13,1,11,-391,8,544,6,-19,4,627,-125,-497,1,-7,-6,-373,34,360,-6,-12,-4,75,-16,-108,4,-5,-2,-69,-62,114,2,-15,-3,8,-11,-3,-10,0,-4,105,43,17,7,-7,2,-63,2,-46,-1,2,-4,24,-27,53,0,-2,-1,14,22,-23,2,0,1,27,3,-54,-2,2,2,-29,6,9,1,0,4,-68,-58,10,0,1,1,129,17,-23,2,4,-3,-70,19,1,-1,-4,-2,17,-19,34,-5,1,-1,14,-8,-34,6,2,1,30,13,50,left
5,167,35,-430,-40,-145,-1,-3,0,578,58,128,8,-50,-10,-492,-332,511,12,-44,-26,653,465,85,4,-61,-13,72,-291,-70,-4,-120,-21,-334,0,106,-3,-12,5,-5,235,-44,7,-58,7,-105,-179,-303,-30,9,-12,425,-184,-191,-39,1,-17,-14,-58,-539,22,57,11,-713,598,493,30,53,23,399,-398,-226,-2,25,-2,-143,173,-285,3,28,26,-23,42,-90,-1,27,-2,-155,67,-165,-3,40,6,-239,184,421,3,26,12,385,-191,-324,-16,22,-9,-146,46,358,9,-19,16,490,-134,116,-7,-28,-12,-200,17,50,-4,-20,-4,53,3,-2,6,-13,-4,-177,-69,92,-2,2,-12,40,21,143,-2,-24,2,166,-18,-59,-1,-8,0,-85,9,-67,10,-7,7,-137,18,13,-3,0,-4,88,-42,-46,0,15,0,-57,46,-36,0,-2,2,52,-28,26,-2,-5,4,-57,4,-6,left
5,156,34,-265,-156,-97,2,55,-34,246,87,379,16,-65,17,367,-231,264,-4,-78,-27,-453,271,27,9,-89,-5,107,-95,231,2,-55,-11,117,329,255,9,-35,3,412,-371,-321,-21,-70,6,94,-185,-506,-33,-2,-22,-301,42,-299,-8,52,-2,-213,199,-227,8,33,8,-43,159,-178,11,52,8,-186,24,269,9,28,9,344,-29,-326,-2,26,7,2,34,127,-4,15,15,-90,34,-127,-11,24,-8,-71,29,121,16,4,14,-345,135,-62,-5,18,-1,297,-97,28,-2,-9,-8,-300,-134,244,6,-15,1,292,41,-156,-8,28,0,100,1,273,1,-44,3,183,-216,-46,-10,-13,-12,-358,149,173,-2,-2,-7,206,-68,-41,0,-7,2,-83,46,112,1,-16,0,69,-46,-79,3,-1,-2,-120,87,46,7,-1,8,-30,6,13,-4,15,-4,-49,6,37,5,-1,5,175,-48,-98,left
-4,157,11,-440,84,140,34,1,32,373,-216,99,-13,-33,-25,244,-68,375,17,-61,-6,-23,56,206,-1,-88,-24,162,-11,14,-36,-49,-45,-307,-13,-57,29,-46,23,-232,185,-42,6,-39,19,347,-145,-340,-23,-15,-3,-105,-24,-307,-13,37,-10,3,97,-417,13,27,7,-88,97,-182,0,53,3,-79,-4,-128,4,29,6,14,-46,96,-6,25,3,231,-67,-223,1,20,6,-228,304,183,-2,27,8,92,86,-47,16,23,3,-286,-97,300,-2,-2,-1,405,-151,-66,-10,-7,-11,-368,94,241,6,14,18,139,-65,-209,-12,-12,-8,188,-116,290,-4,-33,1,-275,82,-36,2,5,0,96,-81,99,-1,-18,-9,67,-23,-40,2,0,-4,75,29,79,1,-13,-4,-60,-15,-47,-1,6,3,62,85,7,5,-3,7,49,-37,-2,-7,-4,-3,-136,-39,7,4,-2,0,24,24,-10,left
34,157,45,1116,-900,804,-45,-96,-21,-863,251,-246,-5,-87,-25,67,488,167,6,-47,-29,-499,-85,227,22,-60,-20,-126,358,-153,10,-19,9,361,-104,-282,6,-17,5,1,-26,-209,-48,-2,-12,191,-171,-423,-11,25,-6,-216,301,-196,27,61,18,-104,63,172,14,29,21,159,69,-544,9,42,14,-199,75,-9,12,59,16,24,16,-316,-9,5,-1,6,-167,336,-4,31,4,-348,105,257,-2,11,10,473,-308,36,-16,-21,-16,-83,-52,151,-12,-23,-8,-49,129,109,7,1,0,76,-2,93,2,-17,-1,108,-68,-30,-6,-12,-1,-98,-28,174,-5,-18,-11,-25,64,-150,8,2,5,-1,21,100,5,-12,5,70,-58,-66,2,-2,4,-96,-6,16,-4,13,-3,35,67,11,8,-10,2,39,-60,-80,-6,9,-2,-58,13,73,0,5,-3,79,-33,-17,-2,-3,0,-37,50,2,left
18,152,33,-252,-79,202,-2,11,-2,191,-152,342,9,-12,-17,-38,32,493,-6,-71,-20,442,77,-305,13,-45,-2,-354,231,370,-3,-70,-18,137,-74,-473,13,-64,0,-210,106,-135,25,-41,18,321,6,-21,-25,-26,0,144,-390,-380,-29,-29,-16,155,-156,-470,-23,39,-11,-369,295,-164,20,48,18,-304,174,-132,11,80,7,90,-153,-16,2,26,3,204,38,-32,-7,38,7,112,3,201,-29,1,3,-74,209,-203,30,37,11,-218,69,259,-14,-9,-1,33,-47,-60,4,-10,1,-220,-100,391,-4,-4,6,327,-8,-22,-11,-31,-10,-104,-156,175,8,-17,-11,-16,139,28,6,-15,7,-10,-55,-58,-6,3,-14,-10,-3,34,2,4,4,11,-14,-14,-2,-18,0,16,-30,-26,-1,-4,-2,-23,4,-27,-1,22,0,40,57,70,1,-11,0,-65,-77,-77,2,9,0,103,77,64,left
32,157,42,-78,-231,32,-28,-17,-9,351,-7,244,-5,-48,-12,-603,-67,69,-5,-29,-22,240,413,224,29,-63,-1,106,-298,190,8,-77,-28,-313,216,37,14,-32,12,419,66,-115,-18,-52,0,0,-339,-365,-34,-18,-2,-35,109,-251,-5,8,7,21,13,-496,-4,54,-5,-367,200,-68,26,58,13,111,25,-173,11,33,-3,126,-63,-141,-3,52,10,-123,13,271,0,9,-10,255,90,-342,-7,53,14,-604,180,621,14,15,16,811,-239,-478,-19,-11,-1,-250,75,744,17,-22,8,-78,-142,-7,-20,-39,-17,4,56,-84,23,-1,16,62,-73,177,-15,-13,-16,146,-128,-38,-5,-35,-1,-80,-62,-52,-7,-3,-14,-205,101,40,2,9,-2,93,-16,-30,1,-8,-4,-193,43,-50,1,11,0,202,17,14,-2,-4,6,-72,25,30,3,7,4,15,-21,-36,1,-10,2,-60,30,4,left
9,164,5,-369,-21,246,34,-45,12,1010,-265,450,-28,-53,-35,-270,-200,-38,-1,-128,-4,-369,306,268,-4,-17,-13,273,-151,-512,-2,-72,4,-597,519,163,5,2,28,377,-424,-427,-14,11,-13,42,92,-264,-21,18,-18,109,8,-401,7,51,5,-451,327,92,19,35,14,91,-116,-263,1,53,-8,248,51,148,5,14,8,69,34,-161,3,37,12,-249,35,545,7,2,28,407,-175,-762,-12,24,3,-567,138,815,4,-18,6,180,-213,-165,-15,-1,-20,-123,46,220,5,-8,3,136,-38,-91,-3,-13,-10,56,-9,145,-6,-27,-10,100,9,46,-1,-4,5,-51,59,8,2,-2,-3,15,-29,34,0,-7,3,-20,-10,-17,4,-4,2,59,-46,-67,-7,-2,-4,-34,65,12,8,-1,3,14,27,-42,-4,9,-6,-52,15,16,5,-5,5,55,-39,-42,-4,9,3,-15,35,97,left
23,170,22,-354,74,-31,36,-37,16,888,-439,387,-32,-74,-34,-439,91,54,2,-83,-27,-129,249,416,-14,-62,0,440,-148,-135,-8,-73,-4,-488,-53,-163,6,-5,1,-72,117,-119,-3,3,-8,242,-206,-449,-37,13,-17,39,20,-377,21,49,24,-527,455,166,10,39,6,249,-210,-381,-3,63,7,83,86,214,6,10,6,60,146,28,21,43,22,-553,111,221,-3,23,-1,983,-463,-392,-14,-24,-23,-332,107,358,-4,-8,9,-63,173,-125,7,-1,11,-69,-36,154,0,-5,1,1,-36,-84,-1,-6,1,-154,-63,271,-12,-13,-8,138,-45,-195,11,-11,6,-19,30,231,-8,0,-13,32,-75,-95,8,-15,1,97,89,48,-6,1,-6,-66,-42,-70,7,-7,4,19,8,13,-10,8,-3,-3,62,6,8,-2,2,22,-75,-74,-3,1,1,-36,57,92,-1,2,3,5,-76,-76,left
8,-157,-29,141,-5,491,-15,12,-7,101,-40,-293,-11,-26,3,-148,56,-353,5,55,6,-256,170,-198,26,45,15,-81,-10,-208,8,46,3,254,-105,-91,4,22,11,-146,40,9,-12,40,-11,99,34,-94,2,13,-1,-195,1,-9,-14,51,3,-26,236,453,23,-14,28,184,-218,-116,-6,2,5,156,-175,577,-13,-47,-12,196,-42,-72,3,-18,5,-122,-173,327,-16,-17,-25,-99,129,-335,4,-3,-1,17,32,137,-12,-12,-6,-47,86,-166,6,14,1,-59,84,64,0,-13,-2,-18,-9,27,9,-13,14,147,-14,-78,-4,5,1,-152,-21,-36,5,7,-4,-16,36,21,0,0,4,126,-44,-34,1,-6,3,-36,-43,14,-1,1,-3,-117,-58,-44,-7,20,-7,154,144,121,6,-10,3,-47,-59,-81,-4,-5,-2,-59,-15,27,2,5,-2,10,30,-25,-1,0,1,75,16,16,left
14,-160,-28,47,-123,582,-20,-8,-4,351,-85,-566,-19,6,-16,-313,161,-314,19,57,16,-257,208,23,24,38,14,255,-10,-302,5,41,14,-162,-74,44,-1,10,0,246,-3,-273,7,48,12,-468,134,371,-6,7,-3,618,-151,-292,-6,29,14,-919,256,417,10,-12,3,449,-324,-142,-24,5,-20,-23,71,367,10,-30,11,-42,-31,31,-7,2,-5,233,-26,80,2,-29,0,-98,-67,-15,-5,5,-5,-110,60,12,6,-18,7,126,-50,-6,-5,24,-10,-104,15,58,0,-19,-5,122,2,-66,5,1,7,-20,15,42,-6,2,-6,9,18,-34,5,-2,9,-1,-3,28,-3,-5,-2,-24,-17,-55,2,11,-1,57,12,32,-3,-4,-7,-17,-27,-3,6,-5,8,-106,25,-4,-6,19,-7,109,-3,15,5,-20,7,-13,-36,2,-5,7,-3,-43,37,0,8,-3,6,68,-29,-69,left
3,-155,-33,244,-213,325,-25,-16,5,21,-39,-350,-7,12,-11,-203,180,-312,15,55,7,-313,262,-26,24,38,20,15,-99,-170,3,49,-11,223,-58,-55,-13,29,3,33,52,-22,3,27,15,-224,176,336,3,-3,9,208,-143,-300,-12,25,-7,-464,215,481,-2,2,7,319,-252,-313,10,7,6,-183,139,478,-2,-19,5,509,-230,-214,-4,-25,-9,-146,-36,214,-5,-25,-5,147,-48,-16,-5,-6,-14,-268,136,7,6,-13,9,51,-60,3,-6,12,-3,-5,50,65,3,-5,-1,-31,-23,-40,3,1,4,19,56,-18,0,4,3,50,-76,-23,2,0,1,-64,39,36,-4,3,-8,21,-10,-48,3,0,2,27,-16,48,-4,4,-6,10,2,-42,3,-7,4,-71,7,7,0,1,5,111,12,-8,2,7,-3,-58,-27,-19,-4,-5,-1,-19,34,47,3,1,0,-17,-11,-6,left
45,-157,-11,177,-188,540,-39,-10,-21,262,-174,-434,-37,-25,-18,-87,107,-463,0,42,2,-500,496,-213,39,70,27,-128,-18,57,23,58,11,346,-122,-382,-13,45,4,-132,86,483,14,1,13,31,-135,-290,-6,73,2,-347,327,539,11,-29,15,862,-517,-311,-28,2,-15,-433,213,245,-2,-24,-5,154,-96,-49,-3,4,10,-152,133,267,0,-32,0,55,-254,-70,-3,12,-1,-328,227,148,0,-5,-1,321,-156,-103,-6,-20,-11,-284,30,73,4,3,2,256,40,-40,0,-4,-3,-81,5,-2,5,-10,0,11,-14,15,-2,12,-4,11,23,-14,3,-14,7,89,-39,-57,-3,2,0,-123,23,25,0,10,-4,77,42,83,3,1,1,-122,-25,-78,-6,4,-1,133,-39,-22,2,-16,3,-94,-28,22,-5,18,-7,45,30,22,7,-12,5,85,-32,-35,-4,3,-1,-39,78,47,left
17,159,31,-269,-36,192,24,8,7,419,-191,164,-9,-46,-21,-129,-81,371,15,-61,-19,1,82,359,-9,-106,-22,843,-9,-44,-17,-92,-14,-693,2,40,11,-59,17,-164,-28,-527,-24,21,-13,142,159,-398,-2,5,-6,36,8,-552,-3,52,7,-455,274,-28,6,32,9,69,-38,-365,18,62,19,-266,143,126,3,15,9,410,-203,-201,0,44,6,-566,200,388,-3,14,-1,642,-280,-367,-2,22,-2,-427,292,462,-6,4,16,372,-344,-117,-10,2,-14,-169,169,182,10,2,12,144,-135,75,-18,-22,-8,67,-52,164,3,-8,1,159,54,-105,-4,-24,1,-156,-76,163,-4,2,-5,-26,50,24,2,-7,-1,11,-1,63,-9,-6,-13,0,29,-95,16,-10,15,-54,-50,80,-4,14,-9,25,21,-12,-1,-15,-1,5,23,-23,5,-3,6,14,-23,4,-5,8,-3,7,3,-73,left
0,156,8,42,0,245,33,-36,5,184,33,558,5,-58,-18,51,-79,-23,5,-73,-25,-59,1,215,13,-113,3,100,-69,-313,-14,-78,6,-426,-87,-61,-34,-2,-4,437,-68,-498,-23,-9,-22,9,-26,-658,5,81,7,-779,381,252,14,52,4,186,89,-382,10,75,24,-18,-104,227,11,26,12,287,53,130,-15,26,-13,-97,107,-8,10,19,28,-171,144,-278,-10,39,8,91,-85,163,15,-2,5,68,-159,247,-10,-13,-4,127,-135,-47,-5,-30,-4,7,-89,359,-17,-21,-19,-163,114,-173,14,-10,8,-36,-60,198,-5,0,-3,200,-16,-52,-1,-23,-5,47,26,-54,0,-2,2,-135,17,45,4,-9,-3,-46,-20,-59,1,5,-1,121,48,111,-5,2,3,32,28,-108,7,-3,8,-55,-75,-14,0,10,-6,27,11,17,-9,-8,-7,-25,24,-55,2,-4,5,-2,20,-3,left
3,161,48,-449,-117,-70,8,16,-13,676,-191,454,-13,-47,-32,-76,79,-17,29,-58,-4,5,-1,602,-18,-59,-23,34,190,-496,7,-87,-21,-240,-8,297,21,-61,25,-7,122,-130,-3,-32,6,-103,-71,-156,-29,3,-4,396,-212,-457,-21,-5,-27,-97,74,-393,4,70,17,-468,301,131,33,27,11,-77,-109,-533,-19,78,-4,320,-115,221,-8,10,4,138,288,-238,7,40,22,-454,28,410,14,28,7,504,33,-11,-4,14,1,-209,-23,503,34,-17,21,388,-379,-331,-38,12,-24,-272,40,460,5,-57,7,289,-175,-235,-17,2,-17,-455,229,217,5,-15,4,76,-39,-187,-1,-8,-2,-66,21,93,0,-4,-10,76,56,-31,6,2,16,131,-5,-41,-2,2,-7,-167,-8,-45,1,-2,4,85,-14,74,-7,6,-9,-42,-12,-42,3,-10,4,19,-11,15,2,1,3,63,56,-4,left
41,-154,-30,282,-122,601,-18,-50,13,-150,-173,-297,-28,34,-30,-212,107,-231,-6,6,-2,191,69,-457,5,38,16,-181,115,-63,2,53,2,-30,4,-50,11,41,5,115,-56,-42,-3,39,7,244,101,-18,7,-6,16,-135,325,5,10,65,17,-522,122,-67,6,33,12,224,-219,267,-10,-27,4,265,-200,134,0,-27,-6,-406,-88,173,-13,-8,-17,266,-145,79,-4,-48,-7,60,14,-6,0,-1,-5,-275,69,77,-1,10,-4,125,6,-61,1,-17,2,3,-21,11,-3,7,-1,18,90,-49,5,14,-1,-25,-15,76,-3,-7,4,70,-9,-84,12,2,2,-4,2,75,-1,-10,1,84,-76,-37,0,6,-11,-168,-21,15,-8,9,14,206,54,-39,-5,-13,-2,129,-56,-63,1,-1,-1,-107,48,79,-1,-6,-10,78,-22,-116,9,14,1,-297,74,148,-11,-8,3,99,-60,-51,left
34,149,54,-390,-72,-25,-7,36,-15,384,31,478,3,-80,-37,151,-269,82,-5,-56,-22,-15,420,139,8,-88,-11,344,-179,-201,-18,-96,-2,-423,-39,153,7,1,4,-86,93,-44,-13,-20,13,411,-173,-641,-11,-10,-10,-106,3,-250,-12,55,1,-435,304,-104,19,34,2,-3,-22,-275,2,78,12,113,32,170,-4,2,5,362,99,-338,10,35,8,-619,92,445,15,38,23,412,95,-391,-18,26,0,-199,-49,433,15,-53,6,-89,-248,-48,-16,21,-8,-83,66,325,1,-3,-14,352,-183,-51,-3,-24,1,-28,25,182,-2,-25,7,51,-57,-108,-11,1,-16,-85,75,84,9,-16,7,6,-19,-54,0,2,-1,-68,8,33,5,1,-4,33,13,-10,-5,5,-3,0,49,74,5,-8,6,0,-25,-63,-4,4,-2,10,-1,11,1,3,1,17,-28,-30,-2,-1,-3,18,39,37,left
37,-152,-35,335,-225,587,-20,-30,1,-387,106,-5,-17,-21,10,367,-194,-736,-23,17,-23,-56,73,-369,1,51,21,-377,346,-172,23,22,9,44,-56,-310,2,94,8,-307,60,354,21,44,4,721,-57,-332,10,24,8,-881,282,542,17,56,29,678,-78,-313,-37,-10,-17,-101,-201,483,-7,-33,10,-26,27,54,-15,-16,-12,-136,-57,109,12,-11,10,206,-101,59,-11,-26,-13,6,-20,-3,5,-9,5,-167,-2,201,-5,-5,-11,-33,37,-133,8,-7,-2,88,26,22,1,-8,-4,-72,-19,-8,-4,1,-3,-54,49,-11,1,9,0,32,-2,-36,1,7,4,-8,-6,57,-2,2,1,81,16,-86,1,4,5,66,-5,-27,1,0,-4,-58,-23,51,2,-10,6,-20,-15,-37,-2,23,-6,7,33,39,1,-20,1,56,-38,-19,3,-12,7,-10,27,29,-3,14,-7,-77,-37,-59,left
22,162,46,-689,163,395,29,3,14,801,-550,-185,-17,-48,-40,-55,60,318,5,-25,-11,126,-49,257,-4,-61,-21,108,260,19,-9,-47,-18,26,76,392,-7,-91,-5,-48,-79,-205,-27,-79,-13,218,-68,-466,-9,-10,14,-102,147,-173,-11,11,6,-106,4,-588,28,43,20,-447,97,160,20,61,18,196,-181,-642,8,49,-14,-209,117,352,-16,28,-6,329,-140,-592,-17,46,-4,-43,276,265,7,11,18,-110,207,3,0,32,7,-591,57,310,-1,28,8,697,-267,-193,-10,-27,-5,-90,32,342,-9,-5,-2,284,-58,191,5,-48,14,-186,1,144,-2,-10,0,226,-92,-154,5,-24,-9,-267,-45,85,-2,6,-5,-94,30,67,3,-2,-8,42,-80,-20,-1,5,-7,-1,53,49,-1,-12,4,161,37,31,-4,-8,-2,-223,6,-134,2,14,2,149,-8,52,4,-14,8,48,-28,-79,left
55,-152,-10,245,-214,640,-38,-34,-2,-29,-128,-448,-27,-15,-17,111,-14,-612,-12,66,-9,-522,425,-103,34,40,14,70,6,-433,-3,90,-10,-132,-47,335,0,20,5,322,230,-427,-6,49,6,-92,18,700,22,-5,24,213,50,-159,-14,17,7,-322,-46,254,0,23,2,3,-74,82,-3,-25,15,35,-301,233,-9,-39,1,158,114,-76,6,4,-22,-525,70,170,-4,-19,-6,97,70,8,2,10,-12,147,-73,-32,11,-15,8,204,-51,-106,-6,-17,2,-93,-44,26,-12,10,-14,-194,90,91,9,0,7,213,4,-112,4,5,5,16,56,42,7,1,9,-123,-37,67,5,6,-7,7,-94,-65,-7,-2,-2,232,24,-20,-3,-16,2,-63,-82,-7,-8,7,-9,-153,96,30,7,0,8,200,-39,-123,-1,-7,-4,-217,15,92,0,17,0,94,10,-8,-3,-5,-6,18,-14,-47,left
2,152,39,-284,-236,108,15,4,-3,542,-223,122,-18,-63,-33,53,326,110,19,-54,-12,-529,82,389,2,-57,-3,51,130,237,6,-52,-18,27,272,-77,14,-68,15,213,-237,-151,-35,-82,22,-123,-70,-389,-6,50,-6,180,-71,-350,-4,13,-6,-25,-23,-609,1,69,-5,-156,184,-2,24,48,15,354,-152,-499,-16,46,-15,-102,70,233,27,14,15,-142,85,-133,-1,47,12,-226,-82,715,-23,1,6,-62,121,-228,7,21,1,-190,18,699,-7,2,-8,788,-334,-334,-1,-87,3,-259,47,197,-8,22,3,-249,18,139,-13,-27,-10,210,162,41,6,2,10,-120,-99,-10,2,-7,-6,-26,6,-246,-6,9,-10,134,51,166,11,-18,2,-2,-74,-80,-7,3,-14,-101,73,23,2,9,1,-20,35,43,0,0,6,-8,28,-10,5,-10,14,94,-66,-58,3,6,0,-115,76,51,left
2,163,12,-379,-71,382,56,12,18,1195,-397,60,-42,-67,-43,-163,233,173,42,-117,-1,-812,215,490,-18,-68,-15,627,-213,-747,-17,-94,-38,-529,-9,209,-26,-20,13,-8,116,-216,-17,1,0,35,-4,-346,3,14,9,26,54,-91,-2,45,-9,-129,-63,-405,13,57,26,-89,196,72,29,32,18,161,-200,-316,1,39,-8,136,139,142,-9,33,12,-56,60,-126,-3,21,-17,151,122,-107,-2,-3,21,-180,30,380,22,18,8,45,126,-45,8,16,-10,-232,-170,489,-8,-22,11,544,-205,-251,-14,-28,-13,-230,-49,232,1,-9,17,-127,-85,57,-11,-14,-14,87,-13,-72,-2,4,0,-89,49,80,9,-12,-1,54,-78,-65,-9,-2,-11,18,77,52,-1,-4,-4,65,13,-49,-1,12,-3,-56,38,43,6,-14,6,68,15,-31,-5,1,5,-81,-35,-21,4,4,-1,92,41,-21,left
37,148,61,-448,-122,225,0,48,-33,116,-284,256,-12,-45,-23,877,84,190,4,-88,-9,-170,-17,-19,-6,-80,-15,-100,66,90,-29,-84,-15,-157,-29,-140,8,-43,-4,-410,289,195,-7,-38,5,432,-191,-604,-25,10,-2,-215,93,-108,13,17,16,19,2,-305,-4,55,-7,-215,175,-170,15,35,14,-131,42,-64,-1,51,-9,554,-58,-333,19,52,17,-468,114,449,-1,14,17,391,-95,-293,7,42,-1,-418,-183,455,-27,-18,11,368,195,-36,16,-25,22,-163,-302,-189,-18,39,-22,-361,523,379,14,-32,-10,439,-347,-140,-6,-8,-6,-91,179,242,-4,-26,-1,228,-132,-280,2,3,4,-266,14,371,6,-9,3,240,-20,-214,-10,-10,-6,-61,45,-72,5,6,0,-55,-89,157,0,-6,1,59,14,-59,-6,4,-7,-35,13,70,4,-5,4,-6,-5,-42,-1,0,6,-135,-2,-44,left
6,158,36,21,-77,-28,7,0,-8,-50,-31,368,17,-5,-8,78,-97,324,2,-75,-40,231,179,-249,-8,-35,-7,240,216,194,-5,-53,-22,67,-289,180,3,-99,-14,-50,153,139,22,-59,50,-247,104,-211,-9,-17,1,-6,-502,-524,-29,23,-14,-108,171,-319,-12,36,0,180,-52,-610,4,48,-4,-380,323,102,24,61,4,142,-173,-23,-17,26,6,154,114,-134,18,24,20,-152,-29,388,-28,2,-8,197,-46,-225,9,25,15,-603,411,565,1,0,8,937,-328,-705,-15,0,-9,-632,58,765,7,-28,-2,22,-68,-32,-2,-11,-3,104,-14,65,-4,-18,-11,60,34,15,6,-2,-1,-291,-8,158,1,-7,10,294,-76,-166,0,-7,-3,-159,7,67,1,-7,1,146,27,-42,-5,4,-7,-73,-31,-41,1,-7,-2,-9,9,35,2,9,4,24,21,-30,-1,2,-1,-53,-53,15,left
31,145,58,-295,-223,168,-25,13,-15,498,-84,108,-7,-26,-30,-432,82,90,-8,-22,-17,820,229,10,26,-79,-12,-651,-180,352,-10,-91,-29,20,229,-14,19,-56,23,10,145,5,4,-47,11,80,-128,-55,-40,-34,-8,312,-379,-678,-38,21,-20,252,53,-581,1,52,4,-531,524,108,45,46,28,-257,72,-273,33,72,7,-221,-242,330,-14,48,1,575,-240,-360,-12,21,2,-285,250,466,2,31,24,383,81,14,-24,-35,1,18,-50,-281,-5,9,0,-344,120,411,15,-6,-10,10,-82,-161,-1,0,-8,-2,-42,310,0,-22,-1,-59,-65,73,-5,-20,-11,124,-112,50,-2,-1,4,17,138,-31,2,-13,-4,-8,-20,-8,-2,-6,6,101,63,64,6,-12,6,-138,-99,-135,1,17,-9,55,22,46,1,-7,0,120,-29,-23,-2,-5,3,-209,-1,-47,3,10,-1,79,52,60,left
26,148,39,-172,-237,234,5,-9,-20,323,-123,92,-4,-45,-7,190,299,282,-3,-63,-31,-98,-89,-255,4,-120,-18,-284,-173,293,-27,-15,-27,185,278,-47,17,-58,13,-192,64,25,-30,-60,16,532,-439,-666,-35,-1,-11,-538,263,-331,11,74,16,-603,521,54,42,54,20,268,-164,-570,24,101,-1,-97,-73,375,-6,16,4,617,-77,-551,12,73,9,-283,261,999,17,-43,23,606,-523,-531,-32,-3,-10,-629,304,648,-6,9,-1,257,-145,-651,-13,-2,-12,-298,108,598,2,-2,13,336,-47,-317,-3,-7,-8,-316,-138,316,-4,7,-2,358,182,126,6,-52,6,21,-248,-120,-11,2,-15,-354,245,133,16,3,5,75,-87,-32,-2,0,-4,208,-51,-80,-5,-19,0,-61,44,-31,9,1,4,-55,-12,9,-5,22,0,82,8,87,-2,-25,-2,1,-52,-137,2,13,0,-149,113,64,left
21,-155,-8,333,-343,382,-34,-20,-15,127,-189,-618,-30,10,-23,-391,409,-125,8,49,8,-259,179,-186,39,53,15,-155,139,-127,13,55,17,290,-286,-21,-11,8,-1,-50,204,-197,4,49,8,-17,-52,386,4,7,11,247,19,-304,-20,17,-10,-75,61,371,7,1,10,-188,-51,225,4,1,16,0,203,-206,2,-4,1,-119,-70,494,11,6,-18,506,-372,-190,-10,-34,-7,-4,38,473,4,-27,-1,-20,-123,-179,-23,-15,-17,-80,143,108,12,0,10,-57,15,-139,0,-9,8,66,-8,-141,-1,6,-2,-44,34,64,0,7,-4,-27,-48,-27,-2,-3,1,40,36,-6,3,-6,1,-17,20,-104,1,15,1,-69,-6,75,-4,-17,-1,107,-20,-69,1,15,-4,-136,58,18,8,-4,6,56,-70,-32,-8,2,-4,0,50,82,6,-5,7,-17,-56,-86,-6,13,-8,11,97,57,left
16,155,36,-452,-91,-85,6,22,-5,288,-102,119,9,-27,-2,137,-20,622,-3,-82,-20,18,-75,93,6,-96,-27,4,150,311,9,-97,-3,176,-13,-70,-13,-59,8,411,-332,-566,-52,-35,-18,-375,262,-164,-6,17,7,-121,20,-378,18,66,5,-94,127,-329,-9,69,0,-43,160,139,18,13,8,-74,131,-417,7,56,9,-54,-149,461,2,14,13,391,-140,-651,-17,35,-16,-417,153,771,-2,-12,4,408,100,-416,22,23,11,-643,-155,412,-7,9,2,702,-102,17,42,-33,19,16,-32,-56,-37,21,-3,-286,32,335,-2,-47,-6,122,28,-399,-12,4,-9,-244,33,340,5,-5,1,14,-80,-64,-5,-1,-3,115,-22,64,-1,-7,-3,136,-29,-73,-4,-16,-6,23,131,50,0,-1,-1,-109,-88,-119,1,4,-6,-52,91,64,3,0,6,88,-23,20,2,-6,3,-120,48,23,left
24,159,34,-334,-19,184,9,-25,-4,241,-10,393,11,-40,-20,87,37,7,-12,-97,-53,312,-51,-11,14,-75,3,13,-156,-53,-7,-44,-2,223,130,-178,-18,-62,3,-272,-95,-143,-8,-6,1,-294,21,-79,-4,21,12,152,-112,-610,-10,69,1,-165,165,-168,12,56,10,64,-108,-76,6,40,-8,-165,437,-92,9,64,21,-7,-278,322,-5,15,1,-2,124,53,-7,7,11,-252,26,247,0,15,13,474,-254,-204,-11,-26,1,-67,162,72,20,-1,-1,90,-126,103,-7,-21,-17,-20,129,-90,1,-6,2,206,-193,129,-4,-21,-13,-166,106,71,-9,0,1,-102,-21,149,0,-14,1,28,-21,-63,-6,2,1,-80,79,16,11,3,7,89,-69,-28,-2,-8,-2,-23,-5,10,-2,5,-6,91,11,-15,1,-2,4,-17,32,59,0,-7,4,-66,-53,-77,-2,7,-6,6,33,42,left
29,148,49,-812,46,82,-2,-1,-30,1051,-337,-96,-3,-45,-26,-454,106,506,6,-42,-21,-36,281,205,-3,-72,-14,668,-213,-83,7,-79,2,-59,198,375,-14,-73,33,71,-317,-488,-32,-45,-8,-208,-156,-397,-24,-2,-15,-215,351,-198,13,66,2,-192,5,-349,16,49,12,-142,202,-187,12,87,7,146,-228,191,-2,6,2,203,-22,-520,-4,43,0,-112,41,832,14,14,7,420,44,-772,-19,25,-6,-566,351,859,22,-18,22,299,-294,-159,-15,1,-8,-354,315,282,8,3,21,306,-270,-241,6,-14,-6,-121,12,281,-8,-31,7,224,-200,-294,-10,1,-20,-240,39,126,-5,4,-6,76,43,6,11,-14,-1,-107,5,42,-7,8,-4,167,-60,-34,-6,-7,-5,136,44,73,8,-2,-3,-124,42,-120,2,-12,13,-88,-8,44,-2,10,-3,135,27,-33,5,1,6,12,-22,23,left
9,146,67,58,-294,-419,-8,55,-27,-352,258,300,40,-17,-8,253,-416,525,6,-131,-46,-136,10,100,-33,-56,-25,6,350,544,-15,-109,-5,58,-134,-212,-3,-87,4,142,253,-208,-10,10,13,-116,113,-64,-9,-6,3,60,-277,-470,-13,20,-10,-75,67,-278,8,66,8,-32,-67,-119,27,21,6,32,213,-380,-9,95,8,125,-202,657,8,-15,4,79,191,-818,-7,65,14,-591,313,729,18,10,13,421,-281,-591,-9,9,-15,-286,147,560,12,-5,20,711,-339,-397,-14,-27,-18,-347,105,636,9,-23,13,195,-64,-306,-11,9,-10,-437,53,379,-2,-12,-4,201,-122,-188,-8,-16,-5,33,40,141,-3,-10,-7,-17,-48,-108,6,-2,0,-65,45,100,-9,-7,0,-137,-14,-135,5,1,-2,-114,115,135,-5,12,-3,338,-26,-186,13,-10,7,29,-14,69,-9,-1,-6,-177,47,35,left
16,149,57,-246,35,84,13,-2,-17,161,-247,158,7,-25,-15,-322,24,318,-9,-60,-27,193,-89,-107,-38,-44,-30,706,330,252,18,-108,1,-333,-104,-157,5,-59,11,-31,206,-139,12,-14,16,-118,-65,-225,6,20,-8,189,-212,-205,-29,35,2,38,-168,-336,2,19,2,-118,279,-179,8,83,17,-44,-93,81,0,-1,-22,390,153,-296,14,41,21,-507,68,477,-11,18,0,452,-92,-515,-2,33,9,-560,172,661,-2,-16,1,274,-33,-374,3,16,11,-332,-2,305,12,0,5,324,-179,-142,-12,-31,-8,52,-56,407,0,-22,-13,-72,13,-226,9,-11,2,72,-115,228,-22,-21,-13,59,100,-136,8,-4,8,-228,46,71,0,2,-2,13,-14,-37,-3,12,-8,-152,83,68,6,-5,7,178,-97,-95,-6,2,-5,-40,43,-2,5,7,3,-65,53,113,1,0,0,237,-86,-81,left
21,151,38,-400,7,118,1,0,6,438,-215,-16,14,-62,-27,-144,-8,330,-13,-41,-33,277,136,406,1,-66,-19,-442,-57,254,4,-93,-2,347,-290,-450,-38,-23,-6,50,381,-158,35,-80,53,-362,40,-45,-39,42,-30,314,-227,-592,-6,16,-8,-193,309,-141,12,58,15,-17,-6,-237,9,48,-5,-150,82,5,1,59,3,109,-10,-15,9,23,10,152,-52,236,-9,-3,3,317,-151,-33,-1,-4,10,-456,279,268,-18,11,-7,164,-159,-325,16,-6,6,-476,237,344,0,19,14,294,-110,-239,10,-23,8,77,-113,84,-8,7,-16,-220,76,92,25,-1,2,-35,-135,159,-21,-7,-17,325,-87,-103,-3,-17,-2,-118,67,70,3,-7,4,-40,32,54,-1,-5,3,168,-36,-104,4,-12,0,-55,-38,8,-4,8,0,61,54,36,1,-10,1,-24,-142,-98,-12,14,-12,-105,208,143,left
17,-161,1,532,-356,194,-28,-13,-29,-416,159,-126,-8,18,-1,-23,49,-307,5,38,11,-202,272,-291,22,55,7,-220,61,-35,-4,65,7,403,-276,-118,14,-6,4,-93,283,-148,9,46,19,49,-159,460,-3,-10,-12,56,102,-395,5,24,0,-274,122,694,3,12,19,440,-95,-522,11,-18,-1,-365,-125,356,-16,4,5,65,0,56,0,-24,-9,-30,-181,-44,-14,-5,-13,88,93,156,1,-9,0,-4,-46,-44,-1,-7,-6,-45,-20,93,-2,-2,3,61,92,-12,2,-5,2,104,-25,21,0,-8,0,-107,14,-13,2,-2,0,103,-31,-75,-1,2,-4,-97,37,86,1,-2,5,33,-58,-34,-5,5,-6,-146,63,-20,9,4,8,177,-35,-54,-7,-2,-3,-58,37,63,14,-8,9,74,-85,-46,-12,20,-17,-76,50,90,2,-14,6,139,-38,-72,2,-5,3,-159,28,107,left
13,160,0,120,-339,338,-18,-61,-10,-14,395,516,28,-53,-1,210,-75,41,-19,-112,-28,-79,-180,-238,25,-61,5,-265,477,109,3,-43,19,267,-532,-558,-29,-43,3,115,-153,-426,-37,74,-25,-221,191,-147,11,34,10,62,60,-273,14,58,-2,-126,282,-22,19,51,23,-72,-92,278,-17,6,-2,302,-102,-400,-1,25,9,-453,160,779,-10,-3,9,213,26,-791,3,28,4,-463,95,762,-1,-11,-9,651,-161,-636,7,12,3,-573,297,834,13,-14,6,653,-345,-672,-7,-5,-5,-199,152,615,-6,-46,1,-46,-166,-403,3,18,-2,-331,185,455,-3,-9,-1,388,-274,-450,3,-5,-6,-222,143,304,-14,7,-4,139,-7,-50,15,-19,3,-130,-78,-100,4,11,2,84,-104,20,-12,-2,-3,132,-83,31,-18,-4,-10,-144,265,-72,17,-2,16,-38,29,68,-3,13,-4,38,-8,16,left
52,-147,-8,289,-135,414,-36,-53,-5,124,-185,-422,-25,3,-14,-395,31,-424,5,89,4,-181,386,-111,24,56,4,130,-123,-256,-3,87,13,181,-80,370,-3,-21,-15,373,59,-378,-9,42,21,-347,234,259,1,-17,8,6,-86,239,-6,16,-7,-390,119,74,24,-4,13,104,-75,-195,-9,18,-4,5,-45,292,0,-23,7,21,-152,62,-1,-19,2,184,-75,104,-4,-17,-3,-145,-22,-64,-1,0,-10,-13,-43,132,-2,-14,-4,-28,6,-315,-5,3,-2,72,83,287,5,1,2,37,-66,-99,-10,-11,-6,59,121,8,2,5,0,-138,-21,10,4,9,0,165,63,53,5,-12,7,-133,-87,-52,-2,11,-4,48,35,-33,-9,2,4,23,-20,138,3,-8,9,60,-27,-112,-5,-4,-6,40,54,73,5,3,-4,-208,-27,-13,-3,4,-3,46,-38,-77,4,-6,-3,-90,44,43,left
