AccX1,AccY1,AccZ1,GyrX1,GyrY1,GyrZ1,AccX2,AccY2,AccZ2,GyrX2,GyrY2,GyrZ2,AccX3,AccY3,AccZ3,GyrX3,GyrY3,GyrZ3,AccX4,AccY4,AccZ4,GyrX4,GyrY4,GyrZ4,AccX5,AccY5,AccZ5,GyrX5,GyrY5,GyrZ5,AccX6,AccY6,AccZ6,GyrX6,GyrY6,GyrZ6,AccX7,AccY7,AccZ7,GyrX7,GyrY7,GyrZ7,AccX8,AccY8,AccZ8,GyrX8,GyrY8,GyrZ8,AccX9,AccY9,AccZ9,GyrX9,GyrY9,GyrZ9,AccX10,AccY10,AccZ10,GyrX10,GyrY10,GyrZ10,AccX11,AccY11,AccZ11,GyrX11,GyrY11,GyrZ11,AccX12,AccY12,AccZ12,GyrX12,GyrY12,GyrZ12,AccX13,AccY13,AccZ13,GyrX13,GyrY13,GyrZ13,AccX14,AccY14,AccZ14,GyrX14,GyrY14,GyrZ14,AccX15,AccY15,AccZ15,GyrX15,GyrY15,GyrZ15,AccX16,AccY16,AccZ16,GyrX16,GyrY16,GyrZ16,AccX17,AccY17,AccZ17,GyrX17,GyrY17,GyrZ17,AccX18,AccY18,AccZ18,GyrX18,GyrY18,GyrZ18,AccX19,AccY19,AccZ19,GyrX19,GyrY19,GyrZ19,AccX20,AccY20,AccZ20,GyrX20,GyrY20,GyrZ20,AccX21,AccY21,AccZ21,GyrX21,GyrY21,GyrZ21,AccX22,AccY22,AccZ22,GyrX22,GyrY22,GyrZ22,AccX23,AccY23,AccZ23,GyrX23,GyrY23,GyrZ23,AccX24,AccY24,AccZ24,GyrX24,GyrY24,GyrZ24,AccX25,AccY25,AccZ25,GyrX25,GyrY25,GyrZ25,AccX26,AccY26,AccZ26,GyrX26,GyrY26,GyrZ26,AccX27,AccY27,AccZ27,GyrX27,GyrY27,GyrZ27,AccX28,AccY28,AccZ28,GyrX28,GyrY28,GyrZ28,AccX29,AccY29,AccZ29,GyrX29,GyrY29,GyrZ29,AccX30,AccY30,AccZ30,GyrX30,GyrY30,GyrZ30,Label
-47,-119,-94,4182,28,-1337,-33,-21,-69,-329,-40,424,10,-72,-74,-521,-185,175,-20,20,-53,-726,-162,-18,-21,48,-27,-1750,291,570,1,-20,-19,-1497,-132,371,20,-33,14,-451,290,175,-8,51,18,-2636,265,694,36,-77,107,883,-55,-319,15,57,19,-1619,299,427,24,17,95,614,-252,-77,5,73,23,784,126,-306,30,23,71,418,-383,95,7,26,6,1861,32,-707,-20,40,-30,-130,-85,274,26,-27,23,170,129,-167,-9,20,-10,307,-103,-92,-8,10,-2,-96,17,-19,18,4,17,284,-40,-91,-11,7,-2,316,-73,-144,-9,-4,-15,128,72,-14,1,-9,2,-97,-2,-16,-1,-1,-7,-120,17,60,2,-3,6,-49,2,68,1,2,4,80,-3,-46,0,3,-4,-14,-11,3,-2,-7,2,-7,22,14,0,4,3,3,-14,-10,1,-4,-4,11,13,38,1,2,0,-74,5,-6,t_left
-68,-101,-107,4906,-349,-1382,-17,-64,-58,-539,-88,381,-19,-49,-105,-896,130,353,-3,6,-27,-804,40,-99,-26,71,-61,-1260,30,403,-1,-13,3,-1244,-53,380,14,-35,-10,-708,256,144,-4,26,27,-1238,66,185,16,-33,43,-377,260,278,1,17,9,-2167,184,455,34,-30,151,1959,-184,-411,26,8,-9,-759,-30,-117,-7,51,83,884,-84,-60,2,24,-31,-419,-169,10,8,37,49,224,202,276,26,22,29,332,-113,-108,16,25,19,781,142,-284,-2,36,31,780,-167,-287,2,6,-13,483,-139,-137,-11,-3,-19,306,-67,-81,-5,-11,-11,-124,99,53,6,-3,10,-56,9,12,-2,4,-2,-38,20,35,2,-5,8,49,-15,-42,-3,3,-12,-22,16,18,-1,-1,2,-67,9,56,8,-12,8,24,-9,-107,-7,17,-9,107,-13,70,1,-11,2,-116,43,32,-1,1,0,72,-11,-49,t_left
-64,-111,-91,3980,-476,-913,-19,-22,-78,-32,-68,421,5,-69,-68,-991,193,193,-4,-10,-33,-573,128,-300,-28,57,-38,-1072,220,157,-10,12,-15,-1036,-83,309,4,-13,-23,-880,103,268,4,-1,17,-772,-19,183,5,15,45,-1925,262,709,30,-59,67,388,-152,-312,12,48,36,-1059,159,313,26,-10,109,934,-236,-360,11,39,8,401,267,-220,-12,55,24,-89,-285,208,23,26,35,814,160,-143,6,26,21,401,-108,-116,11,4,5,743,-44,-242,-7,19,0,624,-57,-157,-12,2,-11,264,-82,-136,6,-7,-13,46,131,65,-5,-5,2,-133,-67,2,2,-5,-3,-49,89,64,-3,8,9,-56,-28,13,4,-4,0,9,-23,-12,0,2,-8,-15,10,54,-2,-3,9,-62,70,24,4,2,0,121,-63,-22,-3,4,-5,-91,25,-3,4,0,4,-23,-22,-22,-5,1,-3,-53,31,58,t_left
-58,-90,-130,6283,-569,-1704,-49,-6,-117,-2957,120,1218,11,-95,-57,-1259,37,237,3,19,2,-1297,165,131,-5,8,-23,-1009,195,202,1,-5,24,-888,135,160,11,6,24,-1414,257,467,24,-32,78,-15,-121,-50,10,20,30,-1274,-269,119,12,63,81,-124,17,421,32,7,29,558,120,-487,13,62,75,1227,127,-421,1,43,10,926,-60,-169,9,4,10,1037,-184,-342,-15,12,-25,564,-126,81,-5,-16,-19,18,125,36,5,-14,7,-168,-25,37,-4,8,-2,61,23,43,4,-2,2,-237,23,-27,6,-6,3,203,-58,-6,-8,2,-9,-116,22,-32,6,-7,7,-55,14,8,-4,13,2,118,-35,-4,0,-1,-3,-22,20,12,3,-12,-3,24,-7,-19,-4,6,4,-48,-16,18,2,0,-1,33,-12,-19,-2,0,-3,-22,19,43,3,-6,5,-26,12,-32,-1,7,-5,-10,-17,51,t_left
-21,-138,-78,4809,-257,-1032,-26,23,-78,262,404,15,-18,-40,-85,-2282,-128,773,-5,-31,-47,-1170,-44,-95,-7,22,-17,-787,85,42,-11,15,-4,-653,-82,131,0,-6,-2,-662,-82,143,-1,5,2,-1240,133,361,17,-10,37,-1483,216,460,13,-3,82,-1203,-225,173,33,22,72,-298,87,104,14,56,81,1384,88,-332,15,36,23,637,-9,-149,1,38,30,916,63,-50,12,24,5,729,-150,-257,6,7,6,842,-15,-265,-4,-1,-11,475,-169,-187,-13,5,-23,-125,94,123,8,-14,11,-217,64,12,2,7,6,79,-17,-3,-5,6,-10,31,9,-6,9,-16,3,-85,-41,12,-5,9,8,127,-20,-40,1,5,-4,32,17,72,5,-17,-2,-25,-27,-192,-10,22,0,29,-1,71,4,-16,-6,-105,60,37,-1,4,13,82,-47,13,-5,1,-11,-20,24,48,7,-4,4,-11,-28,0,t_left
-54,-130,-89,4017,-156,-1212,-8,-43,-90,-247,67,167,-19,-36,-87,-565,-193,-214,-34,63,-24,-1207,129,379,-18,20,-38,-1215,18,657,6,-34,-22,-1439,112,280,6,12,38,-1159,191,527,16,-35,45,-881,111,268,18,2,41,-799,191,82,17,25,65,398,-48,-66,25,6,43,-21,69,99,17,50,58,361,-32,-47,19,17,25,322,-240,-226,18,42,33,561,-26,-103,2,30,12,806,-106,-155,2,4,15,783,-119,-410,-5,-7,-42,282,64,-103,-5,9,21,-105,-46,83,3,-7,-12,202,-2,-134,-6,6,2,-66,1,191,4,-6,5,-44,41,-70,-2,4,-12,-3,35,-11,3,-4,12,-19,-79,26,-3,0,-8,70,23,-44,0,0,4,-101,33,46,2,-1,0,24,-17,-34,-1,2,-6,-41,-19,25,2,-2,7,35,37,-32,-2,7,-6,17,-29,27,2,-8,4,-25,23,-19,t_left
-58,-106,-119,4763,-375,-1630,-35,-29,-81,-1336,15,703,-15,-26,-72,-1496,56,404,-10,11,-29,-1199,75,261,-3,6,8,-911,116,342,3,-17,-6,-848,78,241,8,8,32,-1196,197,329,14,-21,30,-822,47,66,16,35,69,-1409,334,428,45,20,106,272,-72,-129,7,66,46,1190,-201,-381,14,39,39,1038,-8,-168,5,21,-4,1100,-140,-122,5,7,1,257,-38,-63,4,2,6,525,-92,-224,-10,9,-23,80,-26,20,6,-18,3,46,40,-63,-6,12,-1,83,-65,16,2,-1,2,-195,125,24,7,-10,4,98,-112,-81,-6,14,-11,54,19,16,4,-10,7,-107,48,31,0,-2,-5,24,-37,-64,-2,9,-1,-48,40,93,1,-3,7,78,-51,-29,-3,6,-5,-90,29,10,8,-9,4,-30,42,-5,-4,8,-4,20,-37,36,-2,2,8,71,-39,-33,1,-2,-10,-2,18,-29,t_left
-57,-127,-77,4170,-255,-1223,-20,-14,-68,417,26,212,-5,-58,-125,-1204,24,672,-7,-22,-15,-1078,23,-381,-31,102,-24,-1691,34,568,6,-51,-17,-1228,68,393,14,-22,7,-828,83,82,-4,45,42,-1801,150,530,32,-92,84,0,-230,-230,18,64,54,122,558,-54,0,2,62,420,-739,-126,-5,76,3,45,714,356,38,6,18,-602,-35,255,14,34,65,796,-51,-371,16,39,23,1672,-221,-488,-3,22,-3,562,-183,-152,-2,-5,-24,441,71,-57,-13,6,-8,-89,6,96,11,-22,3,-241,-10,-63,3,6,2,-49,24,51,-2,13,4,72,-21,-32,-2,3,-2,82,-27,4,3,-4,-4,-82,-10,6,8,-3,0,53,79,46,-8,16,14,22,-100,-46,7,-14,-16,52,-5,-17,-5,2,12,19,-12,-64,0,0,-6,-52,-39,-68,-5,15,-4,121,37,46,4,-18,3,-198,69,66,t_left
-61,-121,-82,4952,-356,-1258,4,-50,-90,-409,196,-93,-42,20,-54,-1619,-105,733,-9,-40,-54,-1405,-69,118,-7,27,-21,-864,104,332,-6,2,-23,-1366,115,327,9,-9,41,-1088,199,372,23,-53,52,-682,-14,-54,10,26,19,-222,340,70,-1,48,59,-208,-341,224,17,8,45,-449,482,212,29,51,38,265,-38,163,26,29,75,381,-86,-115,12,47,18,1497,-168,-575,1,15,-7,644,-174,-191,7,-6,0,421,-66,-241,-7,6,-20,276,-70,-12,-3,3,6,32,30,-12,0,0,0,-38,-1,-64,2,4,2,50,-40,52,-5,2,-2,-51,5,16,7,-12,-8,-54,77,-41,-4,6,8,77,-81,43,3,-11,1,-101,41,-79,-6,13,-5,128,-82,-3,2,-2,-6,-176,90,50,8,-11,8,116,-19,-55,-9,12,-7,10,-16,89,1,-1,14,-48,-14,58,1,0,0,97,46,-105,t_left
-28,-128,-85,4662,-377,-1288,-40,-17,-74,-506,33,91,-18,-28,-60,-1422,-10,660,-5,-43,-69,-1439,108,55,-17,39,-17,-266,59,76,-9,12,-5,-1127,-30,401,12,-41,9,-440,197,96,-10,49,-3,-1194,-19,250,18,-36,45,-691,276,369,16,21,47,-1783,297,400,29,-10,94,550,-396,-222,1,73,10,148,366,76,18,34,66,126,-269,106,40,28,40,1150,332,-208,-1,52,37,840,-409,-335,12,-3,-28,828,-76,-381,-13,11,-5,417,-113,-20,-4,-2,-13,118,31,-100,4,0,13,0,-73,-17,0,-2,-9,7,30,-21,-6,3,-6,-49,62,89,8,-6,14,-13,-30,-56,-7,8,-13,-14,-23,16,3,-4,11,45,2,5,0,-13,-7,-6,-5,-40,-3,15,2,-63,21,62,2,0,6,72,-27,-36,-2,-5,-8,-11,37,18,3,3,5,-4,-53,12,-2,1,-1,-28,25,-29,t_left
-30,-145,-53,5168,-308,-1176,-28,-17,-119,-342,-38,73,-12,-46,-98,-1828,205,530,-14,-6,-38,-1018,202,-99,-23,55,-4,-1047,51,309,2,-18,-19,-1035,-55,383,5,-15,17,-380,-76,67,-5,17,1,-898,44,240,15,-26,41,-877,-23,223,5,16,11,-1566,80,428,32,-33,133,578,-361,-214,-4,87,9,-647,593,47,30,15,62,199,-184,201,13,66,65,1246,272,-257,15,26,6,541,-326,-141,12,9,17,1300,8,-384,-8,9,-23,714,-111,-136,-4,-11,-12,23,-6,-156,-2,2,-9,-112,92,97,-2,8,18,14,-57,-47,3,-10,-10,22,13,0,-1,9,1,-73,-8,52,-3,0,7,97,-7,-78,6,-5,-5,-75,46,57,-2,5,2,38,-92,-11,-4,-2,-3,-30,90,8,1,5,5,-8,-12,-20,7,-13,-10,-13,0,9,-5,8,1,-11,-29,-20,5,-6,4,18,53,-13,t_left
-82,-66,-128,5107,-386,-1590,-4,-103,-92,-1152,26,802,-9,-40,-55,-1387,24,55,-25,67,-44,-1386,91,480,1,-25,14,-1015,-5,318,12,-20,-5,-1068,164,136,-1,24,36,-958,68,379,12,-23,7,-1331,-17,229,32,-11,99,-650,441,88,5,52,50,74,-200,-68,13,34,37,430,71,50,20,56,53,179,-24,-31,19,42,37,1120,65,-168,16,25,49,1337,-334,-418,-9,-4,-32,901,-159,-329,-14,-7,-32,200,72,-4,-7,1,-13,-343,44,104,13,-8,19,-240,81,125,1,2,6,229,-113,-70,-4,-7,-14,-25,31,-75,-1,8,4,-42,64,65,5,-2,11,129,-50,-101,-9,7,-20,-106,14,110,7,-16,23,-29,2,-47,-3,9,-16,7,22,-21,5,5,6,-47,-27,42,-1,5,4,88,12,12,2,-23,-4,-25,-29,-78,-3,17,-7,10,22,36,-5,1,14,-20,-25,-21,t_left
-54,-106,-130,5350,-479,-1495,-31,-48,-71,-1369,-23,716,-6,-38,-88,-1843,206,304,-7,25,-16,-857,93,239,3,-18,-11,-941,136,159,-4,16,8,-961,78,156,-4,16,-2,-1676,218,529,21,-45,73,-620,-155,95,18,7,37,-1418,267,155,29,55,77,283,28,100,1,43,70,220,-84,-161,26,58,37,851,104,-137,11,47,56,1629,-111,-248,-2,8,-8,1156,-422,-355,-3,-18,-52,131,197,31,-4,6,26,211,-107,-56,-5,-1,-20,-276,131,9,14,2,14,-6,40,11,-4,1,-5,171,-105,-8,-2,-6,-5,-89,-29,-2,0,4,11,67,17,-18,5,-4,-6,-47,35,-12,-6,7,5,51,-34,43,1,-3,0,-29,22,-74,-2,2,-6,23,3,61,3,-3,7,-2,-5,-50,-2,5,-5,3,19,-11,1,-1,1,-20,-14,73,2,-8,4,85,-42,-53,-5,10,-12,-74,53,53,t_left
-51,-117,-92,5501,-266,-1443,-23,-21,-104,-931,134,583,3,-90,-84,-1130,-83,122,-14,37,-58,-1440,51,-52,-27,62,-6,-1204,3,537,9,-43,-14,-1027,25,252,5,-6,16,-855,172,110,2,10,51,-1096,364,507,10,-43,-12,-1492,-148,114,31,-2,151,1961,216,-93,3,-3,-42,-1082,-395,23,19,32,100,1447,422,-275,-11,23,-51,-1275,-434,293,27,17,83,-128,-7,336,12,46,8,124,266,-213,26,43,55,300,-380,-16,2,44,46,1395,124,-498,1,8,-30,704,-116,-170,-9,-15,-20,-111,-31,-7,4,4,7,153,173,-29,4,8,13,347,-115,-209,-10,-2,-26,-80,-14,30,5,-7,11,-107,73,86,2,5,7,71,-100,-30,-7,-3,-20,-117,84,52,8,3,25,80,-54,-72,-5,5,-19,26,21,30,2,-4,13,-120,-13,12,4,0,-2,91,-11,-7,-8,10,-7,17,20,20,t_left
-64,-117,-105,4087,-149,-858,3,-83,-93,-478,-84,111,-2,-37,-35,-586,81,-128,-28,35,-54,-801,32,-67,-22,60,-29,-1399,13,597,0,-27,-11,-1367,-68,501,17,-37,16,-693,194,38,-12,61,22,-2235,222,622,30,-91,101,542,-628,-350,14,43,22,-1345,775,374,14,49,84,861,-594,-100,9,44,41,212,585,-57,18,31,36,362,-230,-41,13,42,30,1208,33,-255,3,20,3,1029,-2,-158,2,-4,-2,464,-236,-244,1,-2,-19,210,101,76,-9,4,8,87,-86,-75,0,2,-3,52,43,-123,-1,-6,-19,-149,-42,89,3,-6,12,-64,46,51,2,-3,2,83,-53,-124,-7,6,-10,-46,8,82,9,-7,14,-43,-2,-3,-11,9,-2,110,19,4,3,-1,-4,-58,-2,60,5,-11,6,-30,56,-89,-2,6,-11,11,-68,26,-4,3,10,15,16,27,4,-10,-4,-55,62,-58,t_left
-52,-113,-113,4957,-309,-1030,-26,-5,-75,-576,-93,441,4,-79,-100,-1476,-12,234,-10,31,-48,-1344,210,-21,-19,34,2,-1149,48,334,9,-19,12,-934,77,231,10,-19,-5,-1384,178,108,-3,25,91,-503,141,490,26,-85,-10,-1159,-341,-253,8,73,133,1229,596,-54,-2,13,-29,-1159,-915,126,14,36,79,874,1104,216,24,26,24,-546,-732,-129,6,71,26,1031,510,-12,17,16,35,559,-283,-161,19,7,17,1094,-107,-391,-21,22,-33,698,-143,-108,2,-18,-8,-71,80,-17,5,-10,-4,-175,-57,5,-6,11,-3,29,110,71,2,3,14,-13,-36,-32,6,-5,0,14,-30,-30,-2,1,-10,5,0,24,-2,5,7,-45,-5,16,4,-1,0,46,-24,-12,-2,0,-7,-74,78,46,2,-1,10,49,-61,-66,-1,5,-8,12,6,58,2,-1,6,15,-1,-16,0,0,-4,29,-11,-31,t_left
-34,-115,-111,4814,-217,-1184,-30,-50,-70,-16,-147,302,-10,-40,-92,-2454,303,596,-10,0,-42,-1359,-4,14,-5,26,7,-1107,-10,219,3,2,26,-1294,-67,376,3,1,29,-1556,35,526,44,-93,70,-1128,-352,-227,-24,143,11,438,535,145,36,-17,115,-541,-412,204,2,71,0,1037,628,-144,22,52,76,350,-82,-208,14,35,22,1474,-96,-204,-14,20,-19,934,-34,-192,8,-14,5,350,-124,-186,-5,0,-20,301,-31,-91,-4,3,-9,-25,39,11,4,-13,10,-165,-3,-1,-3,0,-11,174,34,-6,1,4,5,-237,13,107,3,-10,6,122,-65,-112,-6,3,-14,-76,13,8,6,-1,14,-76,80,46,-4,1,-6,71,-63,-14,3,0,-3,-116,36,53,0,-1,9,71,-1,-31,0,2,-12,-29,2,6,0,0,14,35,-60,13,-1,-1,-13,6,71,-56,4,2,8,-60,-9,55,t_left
-53,-127,-98,4822,-374,-1177,-14,-43,-58,138,55,364,-15,-54,-115,-1701,126,271,-11,25,-49,-1481,63,51,-11,20,-13,-1329,138,372,1,-11,16,-1281,25,212,1,7,12,-1565,-55,392,18,-8,74,-974,29,517,47,-76,73,-1038,-153,-221,-15,131,53,1342,412,-205,12,17,41,232,-232,168,17,20,21,592,315,-162,19,31,47,577,-189,-205,2,36,5,847,-52,-177,-6,6,-11,227,-109,-50,11,-4,7,290,22,-199,-6,15,0,584,-87,-47,-10,-1,-17,-4,2,-16,7,-8,3,-292,95,82,4,-4,5,144,-47,-66,-9,10,-6,13,-37,74,3,-10,9,-64,22,-19,-2,6,-10,-179,14,91,8,-3,1,-105,122,6,-2,7,6,78,-152,-45,0,6,6,122,31,-27,-1,-6,-7,60,-13,-26,-1,6,-1,-31,-14,44,1,-4,0,-16,27,6,1,3,4,27,-32,-45,t_left
-43,-126,-94,4246,-247,-1035,-23,-29,-75,-438,-122,298,-12,-66,-86,-766,259,353,5,4,-16,-1375,116,1,-15,32,-14,-912,-89,98,-5,22,0,-1158,4,412,14,-43,2,-747,-18,120,-11,57,26,-2311,306,663,56,-111,97,292,-290,-421,-27,135,-3,140,512,16,22,-32,91,-210,-491,234,4,49,11,707,572,-145,21,37,39,17,-402,-201,9,44,41,937,191,-137,-1,32,1,995,-150,-76,7,-17,-9,241,-158,-124,-4,-2,-6,470,4,-97,-11,20,-16,-147,-14,100,11,-12,22,-55,36,19,-1,-5,-28,160,19,-38,-1,5,21,-175,-45,3,-4,7,-5,150,-6,26,2,-11,-2,-83,64,-43,1,11,6,26,-7,7,4,-10,-10,-26,-49,-45,-4,8,10,4,-15,97,2,-6,-6,57,17,-81,1,1,-5,-66,27,11,1,-2,2,25,15,-9,-4,5,1,0,-5,41,t_left
-44,-126,-117,4617,-465,-1129,-24,-19,-58,-760,248,579,3,-65,-81,-1410,-6,70,-7,0,-42,-802,167,-87,-15,30,20,-521,116,151,-11,17,-24,-1361,-51,214,-1,-6,28,-488,-84,478,5,5,-19,-2090,124,198,27,-73,89,1191,-131,-106,-1,79,15,-1159,315,38,20,-72,59,776,-316,-234,-13,103,-23,75,814,185,10,-17,54,-874,-756,130,5,49,11,75,597,338,35,37,80,-252,-253,0,24,32,28,1116,47,-268,-2,45,24,1239,-319,-364,-3,-11,-21,596,-103,-240,-6,-9,-33,114,55,-37,2,16,11,-145,21,68,-1,-6,10,158,-48,6,1,-4,-11,5,24,-22,-2,11,8,-14,-19,-2,-1,-9,0,-8,12,-13,2,-8,-16,-49,1,-13,-1,16,18,-37,39,50,2,-11,-6,65,-51,-6,-2,1,-2,-117,65,3,2,4,4,46,-15,-27,3,-3,-4,-49,4,40,t_left
-44,-105,-107,4703,-271,-1705,-42,-29,-71,-1076,28,838,17,-102,-68,-1179,-156,147,-23,47,-48,-1221,154,108,-14,20,-2,-1251,33,632,24,-55,33,-580,181,127,-20,54,-13,-2214,144,552,39,-52,112,-393,-157,282,12,71,17,-386,212,-274,17,3,79,337,-172,213,6,58,9,896,522,-285,20,45,52,122,-378,2,13,23,23,754,88,-244,2,28,-4,798,-139,-147,4,-3,4,376,-163,-205,-7,10,-8,400,-149,-34,-3,-8,-4,-63,-95,146,-29,11,7,-66,201,-263,23,1,-8,-29,160,100,16,-8,4,61,-273,50,-14,12,2,180,211,-79,-5,-6,-10,43,61,-21,8,-4,8,-72,-33,-111,-19,-17,-3,120,-13,95,-5,17,5,-157,320,460,37,-7,-7,-108,-128,-312,-14,14,5,86,-249,-98,13,-14,-11,-102,150,38,3,4,8,90,-169,-43,-12,2,-6,58,33,2,t_left
-68,-120,-72,5768,-546,-1565,-22,-14,-156,-1264,43,669,17,-105,-89,-1771,461,74,-31,66,-22,-1302,61,113,-21,13,-8,-1588,-59,609,19,-31,16,-1323,130,485,-17,37,-3,-2724,-209,480,40,-56,129,-160,164,151,53,28,43,-1475,160,367,2,78,145,1994,120,-327,14,44,-14,788,106,-283,25,56,76,938,-48,-198,12,9,-9,1303,-218,-419,-13,19,-16,518,-81,26,0,-21,-9,370,-165,-245,-10,9,-5,94,75,126,2,-6,7,-21,52,-112,-6,2,-17,-22,-88,136,7,-16,7,-62,67,-160,-3,12,-4,-50,-21,137,7,-7,5,-5,2,-76,-4,-3,-6,-23,-35,-1,0,5,5,-5,38,4,-3,-1,-1,-14,-31,20,-2,-2,5,-4,38,1,7,1,0,-33,6,-64,-7,6,-8,5,-65,69,11,-7,9,17,94,-36,-4,-1,-2,202,-90,-23,-2,-1,6,162,-19,-154,t_left
-67,-101,-113,5040,-488,-1288,-25,-80,-97,-1471,-100,605,3,-50,-100,-1185,180,184,-31,55,4,-1474,360,252,-5,11,-17,-1310,-4,437,10,-24,3,-1432,185,323,3,24,20,-1824,212,498,27,-57,115,-745,-225,69,15,84,44,-284,270,116,26,9,77,721,-74,-34,17,48,34,820,-83,-262,3,55,30,970,62,-252,9,23,17,928,5,-50,6,-4,7,636,-271,-265,1,-19,-38,189,-32,-179,-8,18,-5,12,15,24,5,-4,22,105,66,39,-5,4,-7,83,-66,-75,-1,-8,-14,-166,94,92,4,-4,15,-10,-22,-70,-7,18,-8,38,-15,28,6,-12,6,-53,4,15,1,2,-1,67,-36,-42,-2,2,-8,-105,61,76,2,-1,14,105,-71,-89,0,4,-10,-38,19,21,0,-9,5,-12,15,8,-2,3,-6,6,-20,-16,1,-6,1,-67,10,62,-3,12,5,41,-12,-64,t_left
-46,-117,-115,5931,-472,-1754,-60,9,-113,-2088,58,1009,6,-92,-80,-2086,175,641,1,-3,5,-1189,94,-43,-13,36,-6,-1863,245,358,12,-9,64,-1759,147,545,39,-76,57,-407,17,-380,-45,176,40,-1784,192,584,59,-30,81,941,745,346,35,80,70,1102,-705,-353,3,71,23,1581,112,-391,29,6,32,1059,-534,-182,-8,-18,-33,1044,-200,-421,-13,-18,-39,-19,63,86,-5,-11,14,-148,50,-35,2,7,4,-15,3,-19,1,-1,-2,-9,-48,17,9,-6,-6,62,-4,103,-11,-11,6,163,-122,-79,-9,-1,-12,-287,157,-25,8,-5,8,-255,36,22,-3,3,2,124,15,-27,-2,5,0,-25,-40,113,1,-5,-3,-57,46,-96,2,6,-1,-49,34,142,0,-6,7,98,-8,-102,5,4,-11,-148,72,80,0,3,13,193,-116,-130,-2,-3,-1,196,-57,-83,2,-5,0,217,-50,-70,t_left
-64,-113,-89,4111,-776,-1050,-38,-28,-119,-1448,308,533,6,-59,-43,-1383,287,415,-11,6,-21,-1300,159,8,-10,38,-4,-1640,304,501,12,-13,27,-2067,407,660,29,4,96,-1216,2,205,27,68,74,580,121,77,24,33,39,501,-120,-11,23,49,44,1218,-190,-547,11,32,9,645,-86,-132,9,26,25,972,-193,-333,-6,-6,-24,674,-152,-166,1,-15,-13,190,-31,-134,-10,1,-21,-58,57,101,-2,-5,14,-217,33,68,5,-2,0,-90,60,-8,5,5,1,104,-74,10,-1,-7,0,1,30,-27,-3,6,1,15,-39,21,4,-10,-2,64,-5,-58,-7,7,-1,-30,-24,0,6,-4,-2,-49,75,39,-4,-1,1,24,-104,3,2,1,-3,-158,116,38,2,-3,9,103,-71,-51,-6,6,-11,-44,52,38,11,-7,13,16,-44,-50,-12,8,-16,-31,17,73,9,-7,18,56,-11,-49,t_left
-62,-101,-132,4967,-604,-1572,-38,-55,-91,-1593,-52,694,-13,-47,-61,-2183,296,348,-12,28,-11,-1240,288,385,1,4,5,-2119,354,673,18,4,88,-2101,227,622,47,-4,77,-233,99,-161,2,89,65,971,-165,19,26,29,36,764,104,-115,25,39,34,1114,-220,-256,6,16,14,893,-125,-391,-1,6,-12,608,-234,-177,-2,-4,-22,206,25,-32,-7,2,2,10,21,3,1,-8,-14,-235,-55,92,8,6,24,95,95,-39,-8,12,-5,192,-123,-87,2,-12,-8,-116,85,61,4,-3,3,-46,-52,-41,-5,13,1,-73,71,64,5,-9,8,85,-75,-69,-3,2,-15,27,42,-9,0,6,10,-7,17,-3,-1,-4,-4,16,-7,27,0,-1,-1,19,-26,-43,1,3,1,-65,50,0,2,-5,2,52,-41,50,-2,6,-4,-48,14,-19,0,0,9,-26,46,-1,2,-3,-9,47,-44,-24,t_left
-45,-133,-92,4571,-603,-1534,-39,-14,-75,-611,71,619,-15,-66,-102,-1927,157,441,-15,21,-14,-1521,146,221,0,10,7,-1893,276,543,8,0,30,-2005,218,638,37,3,87,-1077,81,367,24,72,96,142,296,-138,25,37,39,1080,-286,-160,24,57,59,1102,73,-165,14,14,8,1245,-355,-412,-9,5,-20,756,-131,-320,2,-11,-25,163,71,-93,-9,6,8,138,-59,-10,2,-5,-14,-207,69,-45,0,9,13,3,-26,56,2,-11,-2,103,48,-42,-4,11,-7,-116,-64,45,6,-7,14,43,31,-2,-5,7,-15,-16,-5,47,-1,-3,12,-1,-16,-57,2,3,-6,64,12,-20,0,-5,0,-2,15,36,2,1,2,-25,-48,-25,0,3,-2,12,28,44,-3,-5,4,-17,-12,-13,2,4,-2,-1,15,-23,-2,1,-1,19,-56,1,4,-7,1,-32,92,-20,-3,10,-4,-16,-23,58,t_left
-62,-130,-59,5815,-570,-1626,-21,-54,-113,-1196,38,89,-45,42,-120,-2795,373,1049,2,-63,-25,-1861,-39,481,5,9,14,-1957,397,394,13,19,103,-1725,13,596,39,-33,34,-913,260,195,16,97,111,854,179,120,25,20,18,697,-318,-333,26,47,36,901,120,-105,10,41,36,815,-194,-392,11,5,3,822,-293,-276,-12,5,-39,394,51,-121,-1,0,6,101,27,-95,3,-1,3,87,-62,5,-3,-2,-3,126,-55,-63,-2,3,-5,-68,30,48,-2,-3,9,-8,-8,34,2,-3,-3,75,25,-112,-7,1,-11,-96,6,55,14,-5,7,-71,-16,5,-11,5,2,176,-79,-40,4,-4,-4,-117,122,38,0,5,1,-27,-61,41,-3,-6,2,33,19,-19,3,-3,-3,-23,-19,-3,-1,7,7,35,56,-14,-4,-4,-9,6,-24,5,3,2,8,-22,6,-11,0,2,-2,-16,-24,66,t_left
-30,-128,-94,5250,-260,-1694,-66,-27,-131,-1129,-180,663,-2,-53,-58,-2197,284,537,-7,-11,-33,-1393,24,132,-8,38,25,-1277,196,407,7,-9,11,-1600,-29,590,25,-22,82,-969,203,315,22,33,4,-1435,284,319,15,82,128,414,-297,277,53,20,80,1212,24,-767,7,62,19,1882,-98,-354,-9,2,6,885,-213,-318,2,-39,-58,523,47,-191,-17,20,0,-160,-4,53,9,-11,14,-24,102,-42,-3,11,-12,-90,-58,52,-2,-1,8,91,-9,-18,4,-3,8,36,-53,-39,0,-2,-13,-68,70,49,2,0,9,-27,-67,-18,-5,3,-10,122,47,9,4,-8,4,-109,-5,-19,-4,16,1,-23,33,43,2,-17,10,40,-96,-81,-4,13,-20,-50,61,35,-1,10,21,-47,6,44,6,-13,-7,71,-32,-5,-11,9,-1,46,45,-14,8,-4,6,21,-22,-47,-3,1,-8,-27,22,-9,t_left
-55,-119,-100,5440,-426,-1722,-55,13,-110,-1628,-23,923,3,-73,-90,-2867,357,568,-11,28,7,-1470,63,381,12,-3,29,-1805,349,639,36,-72,110,-947,-163,-119,-18,110,3,-311,285,172,37,1,71,93,49,504,28,27,37,466,234,-165,21,63,44,729,-231,-339,25,31,41,715,-115,-282,0,26,-11,1207,-280,-191,-8,-16,-6,517,-207,-295,-5,-3,-27,-68,26,-64,2,-1,8,9,89,25,-10,5,3,53,-112,-18,6,-4,-9,-158,166,62,4,2,10,37,-96,-45,-7,4,-9,-21,51,19,2,3,9,-41,-11,48,4,-11,-2,82,-44,-85,-2,9,-4,-81,99,83,2,4,7,109,-99,-8,-5,-4,-6,-5,47,-70,4,-2,-2,-79,17,29,1,3,5,64,-15,9,-1,-2,-2,26,-28,-67,4,-4,-6,-56,6,46,-6,6,6,-28,40,11,5,1,6,55,-4,4,t_left
-36,-134,-84,4772,-670,-1794,-51,7,-90,-993,357,719,-10,-92,-90,-1629,39,476,-8,12,1,-1539,32,179,-16,41,-24,-1826,226,641,17,-3,76,-1649,223,818,55,-111,70,-255,-264,-647,-25,153,-11,1122,443,-136,8,-40,79,-640,-462,305,17,23,15,792,475,-137,1,62,-8,-117,-140,7,24,16,69,124,-37,111,0,28,-2,879,-223,-206,9,16,12,159,-33,-155,-1,-5,-23,578,47,-52,-9,14,12,-2,5,-40,11,4,4,287,-12,-11,-11,-6,-20,-110,17,164,12,-5,15,-70,36,-136,-4,11,-11,87,-43,42,6,1,12,-109,45,24,2,-2,-9,108,-69,-87,0,5,-1,-82,43,11,1,1,8,121,-68,-85,1,1,-9,-35,19,36,-1,-3,1,4,14,-23,1,7,6,75,-63,-22,1,-9,-8,-109,89,39,-3,9,7,29,-57,-29,-3,5,1,-8,30,15,t_left
-38,-122,-114,3907,-451,-1408,-26,-44,-61,-1160,194,705,-9,-51,-50,-1135,41,307,9,-20,-13,-856,106,73,-22,40,-2,-1012,-70,180,5,1,14,-1119,233,559,18,-21,32,-1298,153,186,7,35,73,-233,-406,-71,0,55,-10,-69,600,340,35,11,84,-411,-424,199,12,53,26,1039,503,-322,25,50,44,544,-202,-54,10,11,11,792,-320,-350,-2,0,-25,739,203,-254,-13,13,-6,268,-239,-119,0,-5,-5,67,60,-15,7,-6,4,56,-60,-76,-13,10,-9,14,58,70,6,-7,4,-69,11,-31,1,2,-2,3,3,58,-5,0,3,-6,-41,16,13,-14,-1,-63,34,-35,-13,21,4,63,-58,21,2,-9,-1,-117,105,11,10,-9,-2,65,-67,-61,-10,15,-2,22,-33,40,1,-10,1,-7,78,15,8,-2,4,3,-107,-45,-8,10,-8,0,61,81,-1,-2,9,23,-32,-59,t_left
25,-157,-30,6575,-229,-2157,-117,66,-169,-1616,-366,614,22,-172,-111,-1993,507,831,-29,39,-28,-1399,164,-357,-42,97,9,-1316,-80,777,14,-57,14,-1470,141,714,23,-41,-1,-633,-38,-163,-6,57,91,-797,-2,426,8,-54,-1,-1245,-345,289,45,17,79,780,1079,201,8,32,80,-337,-1078,-282,1,65,-8,1006,801,-192,14,41,40,-650,-362,393,39,25,39,667,456,-287,1,63,54,810,-411,6,9,2,-45,1283,-56,-684,-2,-15,2,417,-97,-188,-14,10,-18,240,-108,-142,0,-5,-8,-114,129,91,10,-14,18,61,-48,-118,-8,-1,-16,112,-86,43,-7,-3,-4,-144,45,134,5,-5,12,-198,71,38,-1,2,-12,-60,17,70,-1,0,13,2,-8,-15,4,0,-1,4,-70,-88,2,-9,-21,-76,85,70,3,1,16,36,-116,-48,3,4,-5,-29,62,48,-9,5,8,37,-27,23,t_left
-47,-139,-90,4435,-421,-1498,-54,-30,-120,-1308,117,574,4,-47,-45,-925,47,269,-22,22,-41,-993,176,148,-6,13,-6,-952,-82,322,0,-11,13,-1359,59,430,7,12,-2,-1729,378,597,31,-23,99,-435,-239,13,27,11,74,-132,501,111,17,65,44,440,-590,73,10,7,19,636,193,-422,14,24,34,465,33,-80,9,40,14,317,67,-167,7,15,10,324,-6,-138,-5,31,0,265,-17,-59,8,5,-6,-64,72,93,8,22,24,532,-138,-172,-1,3,-15,365,-111,-149,-3,1,-5,93,-21,0,2,-7,5,256,-58,-75,-6,2,-4,34,-33,-41,-2,-4,-5,-20,19,26,-1,-9,-3,-88,33,76,1,-2,0,-121,46,12,5,-2,7,36,-46,-17,-9,11,-7,18,-26,-11,2,-13,6,-28,54,25,4,-3,-2,-20,-65,-25,-1,5,-3,-40,135,57,2,3,7,1,-58,18,t_left
-49,-120,-122,4509,-355,-1669,-22,-56,-49,-929,154,627,-26,-47,-131,-1575,-178,171,-14,53,-2,-1117,49,468,-1,-34,-6,-1645,213,642,18,-2,38,-1230,252,257,6,20,45,-1542,286,447,31,-10,73,53,-81,370,23,47,46,33,-33,6,31,34,67,504,-340,-171,-2,56,16,626,-89,-343,21,19,19,853,136,-440,-2,22,2,421,-38,-37,8,9,26,459,117,-197,2,7,-19,686,-125,-280,-22,18,-5,-13,-27,47,4,-21,-5,63,46,14,-3,-5,-15,-191,-21,47,14,3,27,80,53,-27,-14,8,-13,121,-129,4,0,-12,-1,-17,59,-21,3,1,0,15,-104,3,-10,1,-4,-70,100,35,8,-6,9,-136,47,30,-3,5,-11,82,-16,6,-4,-6,9,-24,-16,-2,4,2,-1,-33,33,-10,1,-3,-1,6,-55,-14,1,2,-3,-47,88,47,-1,1,9,72,-56,-40,t_left
-10,-157,-53,5642,-493,-2184,-86,31,-142,-640,40,216,-32,-4,-63,-2183,236,1089,-3,-60,-62,-1599,-70,510,-9,23,-12,-1175,192,244,-1,19,-4,-1839,226,659,5,-12,50,-2099,199,555,45,-54,81,138,305,46,12,95,92,-774,-305,406,59,-12,79,998,185,-310,12,73,19,1360,-430,-549,0,42,58,1111,-175,-404,4,-14,-45,997,102,-192,-16,0,-5,36,-84,30,-2,-21,-20,-46,131,-106,5,19,12,-213,80,92,8,-1,11,75,-47,27,-2,8,1,217,-106,-129,1,-5,-10,-62,70,30,-1,7,4,-4,-33,18,-3,6,2,88,-45,-26,2,-11,0,-2,32,-98,-2,9,-11,-32,29,126,5,-15,10,-86,-5,-77,-1,15,-1,4,-32,54,-4,8,1,69,45,2,5,-10,5,-1,-41,-45,-6,5,-7,60,3,44,3,-2,6,-28,19,-51,4,-1,-6,-34,-128,115,t_left
-41,-127,-84,4648,-294,-1525,-53,5,-106,-1930,187,692,4,-74,-46,-1161,-82,213,-16,27,-8,-783,29,132,-15,13,-5,-1331,43,410,2,10,12,-1699,430,642,32,-28,89,-1052,-325,-18,18,28,62,118,691,-98,3,61,20,324,-201,318,25,16,32,534,333,-132,20,31,40,289,-195,125,17,32,22,927,-184,-423,7,3,-9,407,-210,-143,-6,18,1,389,-36,-136,3,-6,-20,-46,112,-18,5,17,18,139,-105,-89,-7,6,-8,158,-22,-67,7,-8,1,-10,53,70,-2,6,-3,74,-11,-12,0,-1,-4,-79,34,50,6,1,8,93,-77,-62,-3,-1,-2,-100,26,26,0,12,-7,4,2,91,6,-7,8,70,-61,-45,-2,-1,-13,14,-213,-89,-2,4,10,228,-146,149,-2,-8,0,-188,-87,221,-13,8,-1,-69,134,-95,6,18,14,53,172,176,-4,-17,-7,127,-259,-507,t_left
-23,-121,-105,4542,311,-1991,-31,-53,-87,-1031,-137,996,-6,-70,-59,-831,-156,-217,-31,55,-49,-453,63,242,-28,19,-33,-1598,-15,645,5,-30,-24,-1150,157,279,2,13,12,-1510,194,454,19,-3,83,-1276,337,516,10,-30,39,-261,28,128,22,50,64,-215,495,507,48,-13,85,730,-696,-311,18,61,16,414,108,-364,9,39,10,-74,-205,183,11,51,37,831,106,61,20,3,16,667,72,-606,9,17,0,535,-233,-172,-11,10,-11,511,-132,-306,-12,-6,-14,-247,132,118,15,8,19,172,-68,-25,-12,9,-14,218,-93,-148,-2,-6,1,-145,150,161,9,1,17,150,-175,-180,-10,-4,-31,-85,146,132,8,-11,15,-40,2,-49,-12,15,-6,97,-61,-10,10,-2,7,-99,29,130,-1,-10,7,146,-60,-223,-11,5,-12,-144,-73,74,-6,9,1,40,116,91,10,-11,12,-9,-19,-84,t_left
-15,-137,-79,4344,-40,-1876,-48,4,-72,-279,-157,514,-13,-77,-48,-577,-334,202,-14,-26,-62,-667,208,-83,-35,52,-48,-451,12,298,-27,36,-41,-1777,89,674,7,-39,-18,-1259,100,297,7,-2,25,-1378,313,251,0,14,70,-1003,208,452,23,-39,28,-465,-129,130,16,36,86,-93,52,231,19,14,42,170,-130,31,32,35,62,489,223,-257,3,42,24,332,-232,-150,22,30,27,883,183,-174,6,32,39,914,-96,-303,-2,8,-12,679,-309,-332,-13,12,-30,206,120,191,2,-14,13,-124,137,-4,7,-10,4,237,-284,-189,-10,9,-31,-44,17,39,1,1,9,-195,171,217,9,-12,19,190,-120,-221,-10,14,-25,-123,-18,56,1,-11,16,-89,116,90,-3,8,4,156,-74,-93,3,-14,-17,-126,64,14,4,-1,9,-43,-63,-26,-3,15,0,79,-17,115,0,-6,2,-31,47,-30,t_left
-18,-122,-113,5443,-476,-1898,-65,12,-95,-1881,238,1101,-1,-70,-47,-1480,57,372,-5,-14,-40,-1223,141,6,-6,24,10,-705,47,181,-9,5,-16,-1646,78,405,15,-8,50,-971,133,304,8,1,58,-1025,-463,137,21,28,46,255,638,76,16,26,83,231,-222,145,18,36,21,405,96,-124,6,41,38,330,-95,94,23,8,28,1171,77,-532,-3,27,-6,544,-278,-82,0,8,0,702,60,-208,-11,-7,-16,-125,-138,64,8,-13,1,125,97,-140,-6,14,-10,-73,-50,129,4,-13,8,-96,78,-74,1,4,-2,33,-62,47,-6,6,4,11,61,2,4,-1,-2,-103,36,-40,5,0,0,48,-80,-36,-5,8,5,55,56,34,1,-3,-5,-26,-22,13,-4,1,-1,-11,-10,21,8,-8,5,62,45,-72,-4,12,-11,-161,17,87,4,-1,17,91,13,-61,0,-1,-14,60,-95,13,t_left
5,-148,-58,5217,26,-1396,-41,6,-75,-767,-364,163,-29,-17,-107,-1300,-6,353,-14,-9,-44,-1440,129,399,-7,-16,-28,-730,257,81,-15,29,2,-1164,132,222,-1,4,-3,-1520,115,482,19,-32,58,-1030,173,378,21,-6,64,-296,26,6,1,28,13,-28,-222,163,21,25,92,406,-109,-37,11,30,-4,-266,9,149,3,70,54,202,104,142,42,-9,29,464,95,-316,18,49,51,951,-231,-193,-3,7,1,1117,-40,-543,-11,-1,-37,217,-112,-163,-9,2,-15,-2,45,4,3,-7,4,-112,112,45,1,7,6,-90,-26,36,9,2,-2,71,13,-3,-9,9,0,57,-96,59,1,-3,6,31,-22,-38,12,-16,-6,-56,-21,-38,-11,17,-3,115,15,52,-3,1,9,-87,39,-9,11,-10,-6,0,-12,-37,-12,14,1,41,-33,78,0,-2,4,-19,57,-14,16,-7,-5,-83,-54,31,t_left
-49,-129,-98,4935,-255,-1679,-23,-27,-42,-590,145,392,-21,-46,-111,-977,60,252,-29,16,-16,-1679,-214,411,-14,17,-50,-1391,74,438,8,-17,1,-1266,195,306,9,-4,33,-1377,183,274,12,4,59,-963,379,369,20,10,86,-326,-249,306,35,19,57,752,126,-145,0,53,13,477,-322,-145,17,35,46,181,8,-13,13,13,12,659,132,-166,13,27,33,384,-244,-181,12,13,1,848,68,-320,-16,20,-4,189,-109,-74,3,-14,-16,329,5,-219,-15,10,-10,-59,-60,191,6,-9,12,-74,166,-89,7,1,-2,-53,-86,47,-9,12,-3,70,7,-2,4,-13,5,34,23,-47,0,5,-9,-30,19,63,3,-4,10,-29,-8,-61,0,0,-11,0,-12,21,-1,7,9,66,-8,50,-6,6,4,57,-27,-53,6,-13,-9,-97,36,-27,1,-2,-3,-24,-18,34,-6,9,10,61,22,14,t_left
-13,-135,-85,2714,-30,-806,-38,7,-3,-353,-59,203,19,-57,-39,556,-91,-187,-15,-23,-33,481,5,-171,-21,8,-71,-778,-67,-81,-30,24,-63,-763,93,423,-18,3,-30,-1325,13,353,0,-11,-11,-977,80,166,-2,11,7,-1990,198,571,22,-28,68,-636,18,87,7,15,62,-628,-36,404,23,10,68,212,-42,22,22,36,40,571,63,68,20,33,39,289,99,-263,19,51,28,543,58,-102,0,31,28,558,-46,-223,17,10,8,535,78,-102,3,11,0,541,-213,-296,-2,3,-8,481,-104,-119,-13,9,-11,-21,-48,47,5,-5,-3,22,36,-5,5,-15,2,-48,-14,-10,1,7,5,-21,-2,54,-7,10,-2,12,-19,-51,10,-13,-8,-105,-3,67,-5,11,10,129,9,-64,-1,-3,0,-41,43,3,2,-3,0,84,-53,-41,-5,3,-13,-69,-34,-10,1,4,6,12,65,61,t_left
-40,-139,-66,3647,-88,-1092,-17,-38,-37,-248,41,296,-17,-12,-63,-270,-188,25,-22,-2,-61,-783,-9,257,-3,-9,-38,-941,-170,141,-6,-6,-31,-692,173,67,-9,21,-4,-989,139,189,10,-9,1,-1167,660,203,-5,50,27,-2529,388,513,16,-34,90,270,-325,370,19,37,70,-76,-108,285,37,18,34,650,-310,-54,9,73,89,115,-318,-29,25,1,-19,1166,786,-376,20,46,66,797,-421,-285,2,-4,-11,1266,-308,-674,-33,6,-69,-6,43,182,11,-16,16,-287,40,35,2,3,13,181,-161,-34,-7,8,-9,-86,66,-1,9,-22,6,-90,-66,-152,-124,0,9,106,221,1416,148,6,-25,-137,-185,-1467,-31,24,29,170,-64,2,5,-26,-19,-40,172,54,-7,20,-2,-117,95,145,15,-7,18,80,-49,-166,-15,-2,-20,-65,20,124,12,7,16,65,-33,-51,0,-2,-12,9,-115,40,t_left
-112,-153,-237,1855,-298,-182,23,-63,-4,-1135,98,331,9,5,-15,-779,101,-131,-23,35,26,-1428,92,158,24,-17,18,-1483,398,210,4,32,77,-1124,-180,126,5,45,46,326,527,553,40,31,68,142,-293,186,5,57,25,1275,157,-354,42,24,31,835,-132,-286,-6,34,12,939,-326,-475,-11,-12,-29,703,-52,-211,-5,0,-19,-85,-85,40,-2,5,11,77,40,49,2,-6,-5,-129,1,44,7,-2,4,-5,10,-84,1,-8,1,143,-30,57,-8,8,-4,33,-55,-40,-9,3,-9,-105,109,124,13,-15,23,106,-104,-161,-10,9,-19,-66,67,91,4,-6,10,-86,33,-50,5,3,0,28,-29,46,-9,-2,-11,-15,5,-28,9,-4,12,-1,21,-25,-5,0,0,134,-59,-60,-6,2,-17,-131,75,101,9,-3,19,-60,-41,-1,-9,-1,-15,73,19,-11,9,-5,9,-142,42,14,t_left
-70,-137,-81,5426,-316,-1401,-25,9,-138,-914,-171,298,-18,-38,-43,-1976,218,905,1,-15,-53,-1579,-8,219,12,-7,-3,-1046,71,-27,-9,10,23,-792,301,177,-2,3,10,-2268,262,230,16,-6,101,-390,277,467,45,12,51,-269,-125,63,-6,79,50,334,91,368,31,13,48,366,-334,111,25,60,19,536,56,-88,33,29,60,1235,-13,-541,10,17,10,1286,-554,-763,-39,11,-45,466,-16,-204,0,-25,-32,-68,186,120,-8,4,28,-59,-68,-17,3,-6,-11,-118,85,8,-1,5,5,-50,0,105,7,-7,4,31,-23,-105,-5,5,-7,-78,-48,92,-5,0,9,98,18,-120,0,2,-5,-71,69,77,4,-8,0,4,-27,16,-6,6,-2,101,3,-27,13,-15,10,-34,-36,0,-17,12,-20,15,23,43,8,-15,17,-107,21,-23,0,14,-8,101,-53,-41,-7,-6,2,-23,61,91,t_left
-113,-188,-331,426,-307,24,5,6,16,-1185,75,-50,2,14,14,-1982,369,263,17,-31,89,-659,536,340,6,18,36,-831,-151,316,20,46,82,789,129,230,37,13,41,-184,-457,300,1,76,28,938,210,-378,35,24,29,655,-106,-238,19,26,35,1081,-236,-502,-12,23,-10,760,-129,-323,-6,-17,-26,163,-27,-32,-12,2,-9,46,91,54,9,-9,8,-93,-34,-67,3,-6,-6,-2,25,19,-6,9,3,-9,-28,-7,9,-12,-5,-15,46,51,-14,23,16,127,-36,12,2,-6,-10,-80,77,-30,-3,6,6,73,-84,-37,4,-9,0,1,8,5,1,-6,-6,-34,-28,-16,-3,4,-3,-43,95,54,7,1,10,25,-53,-6,-19,4,-11,-85,20,60,13,0,9,23,-35,-33,-3,-2,0,76,-30,81,5,-14,-7,-157,76,-128,-4,22,3,-20,-10,50,-2,6,15,168,-43,32,t_left
2,-159,-26,4944,-455,-1747,-50,-12,-82,341,17,134,-54,16,-155,-2451,268,880,-1,-53,7,-1624,81,722,33,-22,-62,-1228,82,-98,-19,55,32,-3030,405,341,-8,-23,95,-1350,15,585,54,23,95,-418,-166,382,15,53,5,922,144,-107,12,55,74,641,-192,244,40,47,41,1658,173,-1042,-32,53,1,947,-340,-121,42,-38,-18,771,-135,-282,-33,-2,-32,85,197,-284,-10,-6,16,-129,-24,245,-1,14,-14,-88,54,100,34,-28,16,-121,-29,-139,-26,22,-6,259,-67,-3,-2,4,4,-145,18,56,-7,13,-1,-92,42,191,33,-27,2,155,-38,-131,-17,-1,-9,20,-57,-40,-16,10,0,-169,122,43,15,12,16,59,-58,-38,1,-5,-10,112,-10,188,9,-21,-5,24,-42,-178,-25,10,-8,-260,52,-17,23,13,22,82,43,176,14,-21,-10,207,-107,-179,-46,17,-8,-119,39,-6,t_left
31,-173,-23,5594,-937,-1946,-87,39,-72,165,-8,174,-31,-58,-163,-2889,532,1416,12,-36,-11,-1123,64,201,-9,37,-27,-1447,244,215,2,-14,-8,-2000,283,228,5,-1,63,-1454,399,227,19,1,45,-397,-322,62,1,45,108,-471,178,519,50,1,-8,-567,28,667,-8,92,67,1551,-275,-612,47,23,50,828,455,-264,25,49,43,1036,-699,-591,-31,22,-43,1184,94,-375,-3,-20,-6,149,-82,65,6,-20,4,212,-211,-183,-19,2,-26,62,161,142,7,-1,25,-274,-105,1,-1,-9,-17,18,263,123,-7,11,13,-126,-121,20,-1,-12,2,31,229,-144,4,3,-15,-142,-200,162,-2,1,9,-77,93,14,7,-1,3,195,-115,-109,-2,-1,-13,-196,116,191,1,-2,4,196,-100,-78,2,7,8,-181,168,46,7,-8,-3,134,-94,-37,-9,9,4,72,-20,-82,6,-12,-8,-31,51,-54,t_left
-63,-137,-72,5802,-896,-1206,-57,5,-126,-1605,167,768,16,-44,-96,-1910,146,685,15,-23,-35,-1339,312,-212,-11,31,26,-841,171,-94,-1,-11,-14,-1765,413,156,-3,-1,69,-795,286,165,21,-25,31,-515,10,107,5,32,79,885,70,149,2,11,-9,-608,-73,249,25,19,68,689,42,244,22,11,8,-172,-315,-187,7,45,32,111,-122,162,23,6,-3,234,230,-332,4,38,15,-95,-416,-113,26,36,52,847,254,-229,-2,21,-6,742,-294,-496,-14,-3,-14,125,-194,157,2,-18,-14,153,292,81,-5,7,0,25,-154,-100,-2,7,0,-207,98,176,16,-9,11,56,-13,-44,-9,13,-11,57,-49,10,3,0,6,-46,-28,18,8,-8,4,121,-13,-65,-12,8,-15,-29,77,52,12,-4,14,-28,-60,-32,-3,1,-9,63,-7,-29,-6,3,5,-40,19,49,6,0,2,30,-26,-115,t_left
-79,-94,-121,5401,-863,-1865,-14,-90,-42,-1227,139,701,-31,-23,-114,-1238,110,238,-16,39,-30,-1203,189,643,-3,-27,-28,-1635,254,251,1,12,20,-1115,268,251,-8,4,13,-1794,110,453,37,-34,87,-131,211,236,13,27,18,-532,352,217,20,16,93,519,-553,-136,16,26,2,320,363,-135,16,41,66,50,-500,220,22,36,26,600,242,-376,7,29,9,40,-233,-32,22,17,32,910,-37,-327,-22,26,-20,560,-128,-99,5,2,4,259,-50,-195,-4,-6,-15,210,98,34,-10,11,-1,1,-9,46,9,-12,14,51,60,-107,-5,8,-12,-65,-12,69,12,-8,4,71,-5,-54,-12,3,-4,-109,16,76,6,2,7,73,20,-32,2,-9,-6,-26,-45,-5,-6,9,-3,12,21,-2,7,-6,9,8,29,-15,-9,7,-9,-12,-46,66,7,-5,11,-54,14,9,-5,7,-6,101,5,-47,t_left
-35,-151,-67,3529,-427,-887,-11,-30,-51,-676,126,129,-16,-30,-49,475,-439,-39,-18,12,-53,-706,320,263,-12,0,-54,-1001,97,273,-4,-13,-35,-1002,194,3,-11,28,-16,-1553,226,240,-1,-8,36,-1601,326,488,27,-29,53,-901,183,199,13,29,88,92,-421,36,5,35,38,-284,-319,347,23,27,37,492,239,-121,16,28,44,520,-386,-502,23,25,39,579,634,31,-21,66,22,990,-182,-285,12,-10,-31,368,-10,-175,4,10,17,348,36,162,-3,-3,-14,242,-172,-298,2,4,-4,-114,99,165,-1,3,4,266,-65,-36,-2,-7,-4,-146,-86,42,8,-12,1,-38,48,-101,-4,25,-3,55,6,97,-1,-4,9,26,-39,-61,3,-6,-8,-2,20,47,2,-3,3,24,9,-24,-3,9,1,31,-54,26,-2,-5,1,-82,36,4,5,5,1,7,-25,15,-2,-7,-2,42,-16,-70,t_left
-50,-118,-104,4146,-626,-1419,-9,-70,-48,-458,-142,384,-28,-11,-67,-622,425,188,-27,19,-62,-1318,-245,362,-8,-9,-38,-1064,404,318,9,5,-16,-1414,137,192,-6,8,35,-1231,400,425,17,-23,55,-980,231,275,20,-3,62,-9,-401,-25,7,31,48,634,45,-85,12,6,15,-388,-204,164,12,59,51,107,306,-32,25,11,30,-50,60,88,16,39,42,399,120,-56,9,28,6,797,-221,-391,8,20,1,347,-163,-149,-4,24,0,638,23,-71,1,0,-8,223,51,-58,5,1,6,171,-136,-98,-7,2,-19,182,36,41,4,-6,17,-16,-74,-72,-4,2,-15,-67,1,72,3,-5,13,45,46,-68,-5,5,-13,-79,-34,82,5,-6,10,-48,9,-52,0,-1,-5,28,-62,-3,3,3,-2,-84,67,45,-2,-1,7,40,-4,-36,1,-2,-10,71,-35,5,-3,3,4,-55,25,2,t_left
-26,-129,-84,4463,6,-1891,-24,-50,-58,-781,-306,515,-10,-22,-36,-33,175,85,-45,5,-104,-1580,-725,167,-25,22,-33,-754,343,646,15,-23,-12,-1099,278,381,-6,13,15,-1357,184,352,8,-14,13,-752,273,427,24,-18,63,-532,197,176,17,-3,46,137,-98,-81,15,18,39,601,-29,-189,-8,30,4,-1285,-368,434,17,42,42,-120,172,229,44,2,68,-372,-259,317,4,76,30,1073,270,-712,18,29,22,626,-36,-175,2,39,13,886,-115,-357,-13,5,-40,286,290,30,14,13,30,163,-213,-110,-2,-1,-13,347,98,-235,3,-2,0,281,-205,-168,-7,5,-5,70,100,8,-2,-9,3,44,-62,-26,3,-9,-2,-66,-77,-39,-7,-7,-10,-18,175,91,3,3,11,-102,-104,-14,4,-9,-4,4,60,88,-3,2,0,-31,-34,-3,4,-9,-1,-79,8,-14,-2,4,0,1,35,66,t_left
-65,-115,-103,4672,-743,-1598,-2,-75,-73,-670,8,757,-4,-39,-45,-712,297,172,-25,26,-98,-873,602,108,-19,22,-23,-1063,-306,89,-11,11,-19,-1030,86,389,7,-7,-6,-1248,15,169,0,-17,36,-937,-9,111,3,1,49,-845,386,457,25,-35,38,-122,-655,-92,-3,31,66,350,847,199,25,-3,31,-642,-801,88,9,32,28,82,708,64,35,38,66,-67,-173,285,8,33,25,642,-133,-452,11,46,29,465,38,-183,9,19,11,697,-123,-323,1,26,-7,241,95,-91,-9,30,16,567,-13,-34,17,-20,-11,277,-167,-331,-10,16,-14,157,66,189,5,-10,14,125,-71,-109,-3,-6,-10,29,-19,-10,-5,7,0,-9,75,76,8,-6,8,50,-62,-36,-12,2,-13,-118,-16,53,15,-14,12,12,47,-8,-13,8,-17,23,17,5,10,-3,14,-52,6,53,-5,-3,-4,26,-36,-70,t_left
-36,-140,-79,3336,-238,-1161,-20,-27,-33,-120,-151,-63,-29,-15,-60,-92,-423,238,-19,-29,-45,-668,240,209,-15,9,-60,-1129,199,287,-11,8,-18,-1160,283,414,-3,-3,-10,-1465,223,400,9,4,50,-1490,187,620,29,-17,60,-362,-33,134,23,26,76,-44,-409,-89,4,39,27,517,298,-78,22,16,42,-226,-205,-241,-4,50,30,906,315,-24,24,4,21,160,-161,-261,3,34,13,766,175,-39,2,12,0,351,-209,-180,-3,18,-7,308,11,66,6,-1,7,198,-2,-109,1,2,-4,320,-105,-126,-13,6,-8,-26,7,145,8,-10,18,86,-59,-122,-2,-1,-23,-68,14,-15,2,-6,-5,-180,156,194,3,4,17,24,-103,-152,2,-4,-14,-135,67,45,1,6,12,104,-71,8,-3,0,-9,44,2,-26,4,-4,9,-62,-8,-5,-2,8,-8,69,-15,0,-1,-3,4,0,43,-6,t_left
-40,-119,-93,3690,-314,-1272,-15,-50,-33,-161,-105,102,-30,-22,-81,-332,-88,-29,-34,32,-61,-989,11,491,-6,-14,-43,-1809,313,768,12,-24,10,-1071,227,175,5,-1,32,-620,-5,62,12,10,52,-129,137,206,5,-24,8,-454,-115,1,18,31,50,329,277,38,-4,4,-11,-527,-328,91,14,31,64,-188,309,201,17,9,-12,-914,49,243,27,37,94,400,-191,-71,21,48,17,800,-108,-536,-1,33,24,643,-157,-212,-1,14,0,898,128,-234,-5,6,-25,102,-87,53,11,-6,24,211,-10,-62,-12,10,-24,288,-63,-70,-5,0,7,-195,76,30,5,-4,8,69,4,-37,4,-9,-16,-47,-46,5,0,8,17,54,72,141,-6,-2,-6,-101,7,-54,11,-4,2,32,-41,-45,-7,5,-6,48,11,24,2,2,0,-46,63,39,3,-3,4,20,-75,-43,-4,5,-5,-28,61,19,t_left
-43,-139,-91,3480,-326,-1352,-3,-54,-40,446,-289,-165,-54,18,-100,-280,-306,143,-39,28,-55,-1696,304,812,5,-42,-31,-1328,330,451,7,6,5,-873,291,127,-6,10,12,-886,78,358,22,-23,41,-716,244,381,16,-14,29,-36,-169,-135,13,32,66,-250,375,366,18,-20,1,84,-306,-105,8,39,29,-478,18,94,16,27,47,-92,-63,97,33,18,30,-60,5,-196,15,47,55,836,-118,-334,5,38,16,530,-118,-108,3,7,2,654,77,-289,1,2,-17,149,-104,-53,-1,12,5,323,139,26,-6,16,8,-62,-144,41,10,-3,3,245,2,-210,-13,-2,-20,92,5,38,-2,1,10,-45,33,77,6,-9,-12,1,-47,-149,-4,5,2,-161,43,102,8,-7,10,156,12,-91,-9,19,-9,-69,34,72,9,-9,14,55,-6,40,-10,-1,-20,12,-44,-37,8,4,16,-83,4,43,t_left
-42,-128,-98,3750,-273,-1626,-30,-36,-52,-955,1,535,-3,-45,-38,-425,-211,220,-19,3,-43,-657,-28,108,-13,-2,-25,-374,217,228,-9,12,-20,-773,-2,228,-1,-1,-6,-763,287,332,2,-8,3,-796,50,182,-3,19,17,-1593,226,476,34,-7,71,-423,-3,277,20,17,75,-139,-188,-22,11,46,41,726,196,-174,32,3,40,-323,-392,-37,-6,61,13,985,339,-314,18,7,26,300,-112,-140,-10,29,6,572,37,-116,5,15,0,409,132,-128,1,0,-28,-249,-147,-15,5,10,18,33,117,186,3,11,6,341,-122,-135,7,20,8,346,-166,-115,-4,1,-9,248,-6,-60,-4,-9,-9,-80,45,32,9,-5,12,222,-52,-109,-16,5,-22,-75,33,33,10,-15,17,-217,60,137,-6,8,-2,91,-66,-72,1,4,3,-81,37,31,-1,-3,3,52,-28,-56,2,-8,-12,-27,50,22,t_left
-27,-144,-64,3862,-346,-1176,-41,-9,-49,73,-189,96,-11,-47,-68,-378,191,87,-22,3,-84,-1357,-304,214,-30,33,-33,-1212,118,596,14,-51,-25,-1136,391,215,-4,19,25,-727,205,135,9,-8,26,-446,146,246,12,-13,42,-285,110,78,9,-3,21,272,-121,-193,-3,28,28,-39,237,241,9,-12,0,-654,-324,230,16,22,46,42,239,80,11,20,18,-753,-573,260,30,22,47,628,368,-301,15,14,33,-261,-241,-5,0,53,9,499,296,-287,8,42,27,-34,-158,-66,9,25,16,409,57,-48,10,13,21,775,-4,-164,-4,7,-14,747,-135,-270,-14,-5,-23,39,-38,-19,6,-7,6,-10,57,44,-2,0,4,51,-34,-90,-1,1,-14,-47,91,95,4,-11,6,-45,-26,31,-7,11,2,20,-29,36,4,-6,8,-41,-18,-36,-2,-3,-21,-74,0,-27,4,3,20,21,-26,54,t_left
-28,-140,-68,4882,-896,-1815,-50,-4,-70,-192,-67,341,-34,-40,-115,-1488,143,657,-14,-2,-38,-1271,423,422,7,-12,-38,-1264,236,162,-11,3,5,-731,234,166,-1,10,14,-500,-18,136,8,-16,38,-132,129,168,5,-5,-1,-389,-2,-24,6,8,21,-331,311,224,4,-14,16,-540,-55,51,18,24,60,-235,263,244,17,-17,16,101,-248,-177,2,55,42,-127,6,175,21,14,14,-434,-69,182,20,37,48,150,9,-15,26,27,54,490,-292,-288,1,31,1,840,40,-283,5,19,12,539,12,-71,3,1,-5,493,-178,-261,-11,8,-24,51,-12,19,5,-10,5,-177,135,140,0,5,15,203,-35,-76,-2,5,-15,48,-103,-177,0,5,-3,-53,78,146,-1,-2,11,98,-59,-64,2,-10,-14,-80,75,-11,0,12,12,12,-67,41,2,-6,-4,30,88,-51,2,1,-4,-59,-41,23,t_left
-48,-131,-83,4285,-423,-1322,-18,-40,-31,11,156,89,-39,14,-133,-1266,-315,181,-22,4,-36,-1442,372,789,9,-41,-27,-1248,151,162,-10,21,7,-858,-47,167,2,8,19,-1145,213,531,32,-43,47,-549,-18,51,6,25,38,-374,-141,15,15,11,68,285,357,227,25,-8,18,-32,-271,-323,-11,68,51,357,134,-71,35,-12,19,-10,-29,-164,-9,43,23,556,80,4,10,13,17,124,-18,-196,8,13,8,261,115,176,-4,36,0,423,-299,-180,10,-3,0,226,49,-42,1,0,5,222,3,13,-4,9,-4,132,-42,-65,1,1,-1,13,3,8,1,6,11,148,-80,-64,-5,6,-14,-114,101,140,9,-16,2,-86,-13,-115,-4,15,3,151,-30,-37,1,-5,-3,-33,21,50,3,-1,6,27,-63,-60,-1,-4,-16,-85,30,-7,9,11,18,10,8,138,-12,1,0,133,-49,-102,t_left
-37,-139,-74,4404,-508,-1319,-29,-13,-92,50,-321,-26,-34,1,-85,-1196,203,447,-14,-24,-81,-1869,307,626,-5,0,-13,-1300,305,240,1,1,10,-1380,200,202,3,7,45,-1201,291,500,26,-30,75,-565,64,272,8,26,22,-466,-266,-240,18,21,77,527,271,134,22,30,34,-207,-198,-86,16,29,57,919,56,-166,9,38,17,525,-82,-257,12,24,16,457,-110,-13,5,12,14,824,-13,-139,-5,-2,-20,325,-185,-158,-2,1,-10,47,39,25,-4,8,4,33,12,28,-1,4,3,27,-30,-20,-1,2,0,-87,69,67,6,1,4,-8,-44,-102,3,-3,-8,101,-8,-32,0,-9,-10,-75,30,26,3,9,10,36,2,23,-3,2,4,58,-43,-28,-1,1,-7,-23,-1,6,7,-13,5,-47,-27,-9,-11,14,-8,8,2,26,9,-6,11,-34,25,-41,-2,6,-5,57,-21,-28,t_left
-41,-138,-80,3858,-315,-1185,-23,-18,-50,-386,134,174,-25,-20,-102,-1133,-361,178,-28,15,-27,-1214,256,544,1,-33,-30,-1007,225,361,0,13,15,-1250,18,188,6,8,33,-998,397,564,34,-29,36,-708,-87,14,11,49,77,369,99,-102,24,2,40,76,97,184,9,51,25,225,-310,-404,21,4,35,245,-88,-17,-5,44,20,600,-28,-230,11,9,17,334,33,-28,2,14,10,742,-51,-110,-8,4,-17,232,-113,-32,0,-21,-14,-12,109,-23,-1,12,5,119,-175,-74,-8,8,-7,-40,74,111,3,-13,11,-1,9,-59,0,3,-7,-13,0,-19,-1,1,2,-28,5,52,2,-3,2,-19,3,-44,-1,6,-5,-27,11,91,-2,-7,7,-109,67,-88,-1,14,8,206,-70,-23,-3,-6,-16,-16,-20,47,-5,-4,7,103,-19,7,5,2,8,-65,-52,14,-3,-1,-13,203,-18,-37,t_left
-37,-96,-128,2963,-109,-820,-4,-51,-8,-432,54,297,-10,-10,-76,-503,-88,-73,-24,2,-33,-418,-35,142,-8,15,-24,-1133,264,256,4,-14,-19,-882,48,169,-8,22,1,-1426,218,355,14,-22,39,-1312,186,290,29,-8,116,247,214,57,7,23,6,-135,-250,-119,5,29,48,848,73,-156,10,22,10,-73,-142,-23,5,22,27,260,-29,119,9,30,0,-351,-118,-21,26,22,67,106,149,351,10,32,9,1298,-283,-640,-19,23,-16,237,-19,13,11,-18,5,409,91,-138,-9,12,-17,38,-170,-60,-2,-11,4,70,202,-6,-3,15,3,-36,-86,34,4,-7,-3,20,28,-36,5,-8,2,-53,53,8,-7,9,-8,27,-77,11,-1,-4,13,-50,53,13,1,2,-7,-1,-48,5,6,2,10,20,18,-38,-7,-3,-15,-41,12,-7,5,4,15,-23,-12,10,-2,4,-7,63,20,15,t_left
-31,-138,-71,4121,-580,-1170,-30,-19,-77,-38,145,214,-14,-30,-59,-897,-11,195,-19,10,-77,-1429,1,158,-10,-3,-33,-1097,187,353,-7,4,-17,-1788,240,365,4,13,35,-1543,596,599,34,-27,97,-1355,223,516,21,25,54,379,-232,-227,26,20,51,652,-243,-128,0,62,41,105,100,-81,40,10,50,484,134,-12,8,55,27,877,-314,-310,7,17,0,1066,-109,-277,-4,-5,-17,114,-216,-21,1,-3,-4,267,0,-211,-8,3,-18,-12,141,49,7,9,22,35,-69,-48,-5,-2,-14,57,-33,3,5,-10,2,-146,118,57,-3,20,0,14,-76,18,5,-8,5,30,48,-1,0,6,1,89,-106,-65,3,0,-2,9,24,-11,-5,0,-5,-1,-31,55,1,1,7,32,-3,-62,1,-9,-6,-55,84,50,-4,8,2,13,-50,-42,5,-4,2,29,47,17,0,4,5,-33,-70,0,t_left
-39,-125,-103,3728,-261,-1337,-26,-26,-13,-258,-137,294,-9,-51,-71,-1059,-40,27,-18,3,-53,-305,6,245,-22,-2,-39,-991,113,305,-8,10,-8,-931,226,302,-6,1,-21,-1677,199,550,21,-17,68,-925,238,413,19,-4,50,-191,26,-13,8,48,6,-869,23,219,17,39,90,-260,-200,254,56,41,70,348,109,-398,-1,65,57,987,-378,-272,7,11,-9,1712,365,-366,-10,9,-7,491,-340,-100,4,-33,-20,219,61,-190,-10,15,-11,38,64,79,0,4,20,-34,-170,-115,1,2,-17,-42,194,50,3,2,15,27,-37,130,-7,8,-6,158,-87,-44,-1,-17,-11,-176,72,11,7,0,17,64,64,100,-4,5,-10,-4,-89,-90,3,-4,1,-60,25,-13,-3,-1,3,29,8,11,8,1,-2,-33,-33,-55,-6,8,-3,-14,44,43,2,-3,4,35,-55,-66,1,-2,-2,2,46,21,t_left
-44,-130,-113,4384,-621,-1345,-46,-31,-86,-914,114,510,-5,-26,-75,-1760,90,389,-6,-8,-15,-1107,275,236,-12,18,-2,-1573,220,349,11,-2,31,-1694,217,573,20,2,82,-704,-192,308,32,20,56,-518,383,164,20,38,60,598,-450,-249,2,50,29,800,52,-342,24,28,33,351,86,-193,6,34,23,896,3,-117,-16,31,2,662,-189,-166,16,-16,-10,296,-20,-44,-7,9,-7,159,51,31,-3,2,-2,70,-32,-83,7,-2,0,11,-63,-22,-6,4,-5,71,80,52,1,-4,7,-63,33,-60,4,4,-4,-64,-7,17,-3,4,4,62,-4,4,3,-2,2,51,-87,-53,-3,2,-11,-68,47,91,3,-1,11,92,-54,-43,-4,1,-5,6,58,-19,10,-11,-1,-22,-96,-43,-7,7,-6,-34,57,56,1,-1,14,19,-36,-51,1,-1,-8,-21,46,35,1,4,0,-21,-6,39,t_left
-28,-143,-83,4487,-340,-1463,-27,-37,-89,-373,-121,112,-20,-41,-67,-906,85,155,-43,51,-70,-1742,76,481,-1,-27,-11,-1179,281,726,4,-10,-3,-1568,175,241,1,27,47,-1203,295,554,30,-41,74,-925,-4,349,31,19,57,457,-67,-351,-2,51,19,-99,-323,19,30,8,77,427,401,100,1,50,6,287,-175,-431,29,33,35,280,-127,-4,2,46,31,773,-51,-185,0,7,-2,618,-137,-163,-1,0,-9,679,6,-157,-3,1,-4,159,-84,-56,-14,-3,-27,-102,231,99,21,-15,24,-21,-71,-82,-8,14,-15,17,-36,6,-3,1,10,43,11,129,2,-7,7,-32,3,-148,0,3,-17,-103,128,82,0,5,11,54,-175,-46,0,-3,-3,-18,73,40,-2,7,2,29,-56,16,3,-12,4,27,-17,-85,-3,8,-13,-87,91,71,5,-4,14,81,-49,-36,-5,2,-9,-5,-33,-22,t_left
-41,-123,-100,4516,-538,-1677,-43,-39,-76,-1664,148,1051,-5,-43,-42,-981,-3,265,-18,4,-60,-1224,144,147,5,-7,-1,-1040,69,236,-3,21,30,-1258,429,529,27,-24,52,-1329,20,306,14,53,59,-336,254,162,44,1,57,-882,-585,73,-17,60,52,1601,570,-346,26,25,31,610,-466,-373,-1,55,4,857,263,-91,8,2,15,396,-119,14,10,1,-2,605,-117,-224,-17,7,-22,128,-102,7,11,-18,3,-100,73,-68,-3,17,-4,48,-64,42,3,-12,7,33,70,-38,-3,11,-9,14,-97,-9,5,-15,1,-17,52,23,-9,14,4,-41,39,20,5,1,8,39,11,31,0,-3,-4,4,-20,-78,-1,3,2,-67,-11,11,4,-1,-6,-7,45,25,-2,7,12,126,-111,-9,-2,-7,-8,-41,90,-1,6,-1,-2,-28,-16,-45,-2,4,0,36,42,69,-1,-5,0,-19,-47,-34,t_left
-70,-161,-248,5257,-174,-346,-17,-47,-3,-2700,-762,-587,-32,61,-93,-1614,360,587,12,-37,8,-2052,555,503,10,-16,57,-570,404,153,6,15,55,-1146,353,268,26,-13,63,712,-232,15,6,49,43,184,134,101,38,-53,29,472,-277,-173,-45,90,-27,128,-299,-162,25,-46,4,-1170,-175,853,23,58,40,-104,50,-306,21,38,68,20,-53,-172,12,54,19,1154,111,-552,-15,31,10,700,-109,-63,5,-9,-14,619,208,-105,-7,-5,-12,103,-200,-36,3,2,3,29,169,-44,-8,-3,-2,-3,-68,120,6,-3,1,-34,42,-99,0,6,4,40,-61,-11,-3,-9,-12,-22,40,14,5,-1,11,-36,-20,23,-5,6,-7,0,30,34,3,0,8,8,-15,3,-2,3,-7,40,1,-2,5,3,12,-38,2,-17,-4,-6,-10,112,-34,-21,-3,1,-2,-112,24,44,3,5,12,6,-35,-19,t_left
-51,-124,-103,4230,-308,-1608,-24,-39,-51,-834,-33,591,-18,-26,-84,-1241,-119,367,-19,-10,-46,-1443,191,441,4,-7,1,-935,97,275,0,2,19,-1342,439,421,23,-1,64,-1129,-31,408,11,30,23,-732,63,204,28,7,61,190,23,26,31,43,57,478,-71,-537,-12,47,23,750,96,-164,15,37,15,58,-28,41,18,23,29,669,52,-64,-3,27,6,445,-335,-62,4,2,-4,525,-61,-264,2,-1,-9,269,-89,-13,-9,-1,-13,217,178,-11,0,-4,9,-156,-74,-33,1,8,-5,42,-54,8,-2,-16,-7,-52,154,-37,1,7,11,63,-22,-7,-2,8,-7,-24,-47,-1,6,-21,-1,-162,63,11,-7,27,6,73,-83,20,5,-9,4,-16,61,-3,3,3,-4,-17,41,72,-2,2,0,93,-53,-39,0,-2,0,25,-33,-83,2,-7,-3,-64,149,82,2,12,8,45,-129,-33,t_left
-12,-147,-53,4611,-144,-1964,-47,-8,-75,-596,-524,226,-26,-47,-67,-1093,-15,740,-21,-10,-70,-1123,-40,328,-19,3,-26,-1238,376,462,10,-8,-9,-1280,306,329,6,0,41,-920,255,390,8,16,27,-1411,128,443,25,0,61,-1140,84,354,47,26,97,960,316,-433,-2,59,38,270,-842,-383,9,27,10,1056,464,-63,4,40,28,218,-253,39,11,11,-12,646,77,-290,3,16,19,318,-25,82,3,9,-2,439,-162,-190,-8,13,-11,211,-23,-18,6,-11,6,84,-48,-92,-5,-3,-11,-14,104,63,1,10,1,20,-38,-19,2,-6,7,-35,27,23,-6,8,-1,19,-68,-2,4,-12,2,16,105,-40,-4,15,-9,-1,-74,58,3,-14,11,24,0,-90,3,3,-9,-14,-17,59,-7,0,1,26,0,-17,4,-1,3,-43,22,4,0,1,1,32,3,9,-3,-5,-7,20,0,-16,t_left
-95,-197,-210,2933,-338,-590,-6,-18,-90,-1382,-266,55,-15,40,-3,-1224,502,583,4,-38,-5,-1244,237,206,-1,35,31,-1302,22,324,27,-28,64,-1203,176,574,17,20,32,-1093,-210,57,31,32,94,717,381,-217,23,50,51,428,-321,-474,1,58,44,927,189,-71,6,37,12,950,-202,-202,5,17,-1,514,-23,56,6,-9,5,597,-28,-194,-7,15,-14,221,-68,24,3,-2,11,137,-44,-63,5,-6,-21,-129,119,8,-7,15,12,139,-172,-14,-2,-9,-5,-85,129,-41,0,8,2,70,-44,22,5,-12,-10,-69,31,-5,-2,8,11,72,-84,-44,-1,-1,-4,-9,11,12,7,-10,1,29,16,-14,-5,4,-7,-69,-50,-9,4,6,8,-43,105,65,-3,0,-6,68,-135,-41,0,-4,6,-2,47,-22,2,-6,-1,4,35,24,-1,5,-7,-56,-16,11,2,3,10,25,-10,-33,t_left
-27,-128,-93,5213,-205,-1607,-24,-29,-48,-1844,-273,510,-7,-64,-59,0,45,269,-26,-3,-80,-1643,-47,136,-16,12,-23,-837,115,266,-7,1,-9,-934,240,466,1,-4,9,-1832,1,353,15,15,54,-1845,565,644,23,0,69,-416,76,230,44,25,82,400,168,-407,-6,60,33,465,-494,-251,8,41,46,810,239,136,18,52,14,465,-105,-273,20,14,22,583,-302,-159,6,7,-8,982,101,-227,-18,28,-7,391,-113,62,3,-23,-5,207,25,-145,-5,0,-7,-117,-38,-56,11,-7,17,120,48,25,-15,17,-18,26,-96,59,9,-23,7,-55,73,-53,-1,3,1,48,-69,-38,-2,-3,-10,-1,7,-1,3,-13,4,-91,81,30,-6,16,6,31,-41,28,3,-5,-6,-34,14,29,0,-7,3,-41,33,-4,0,5,-2,-20,-18,-7,4,-3,0,-45,30,69,-2,0,-1,79,-14,-93,t_left
-37,-123,-88,4124,-423,-1326,-19,-61,-63,-222,-6,-76,-50,2,-89,-229,-375,-3,-14,2,-31,-1496,360,698,-21,-6,-89,-1646,149,560,8,5,5,-1528,238,492,11,-28,36,-1056,261,217,6,36,69,-761,132,303,22,-25,36,-615,-74,305,37,27,67,-282,272,-67,6,57,68,178,-37,140,45,9,53,333,-355,-503,-12,66,20,896,-85,-220,19,40,22,551,47,-216,12,-6,19,894,-8,16,-19,26,-19,679,-124,-180,-2,-12,-8,151,-48,-192,-2,-2,-11,-36,94,79,1,2,10,24,-144,-47,7,-7,-6,-33,61,-7,-4,7,-3,-31,4,69,2,-6,6,-1,88,-40,-3,13,-4,43,-77,62,6,-23,4,-19,69,-37,-9,23,0,8,-123,47,4,-7,4,-20,93,-69,0,-3,-9,8,-25,37,2,2,9,65,-4,-69,-2,-3,-15,-115,8,62,5,2,16,100,-24,-44,t_left
-37,-130,-83,3020,-367,-987,-9,-38,-16,676,-113,-190,-30,-15,-91,-464,-255,141,-23,-12,-42,-446,50,308,-19,-14,-90,-1352,359,266,-8,27,1,-1041,268,451,2,-36,-19,-1121,252,221,3,30,38,-1014,258,367,18,-24,50,-581,84,338,16,15,59,-1056,5,252,24,9,38,478,-274,-120,15,37,37,-373,-136,-48,26,19,54,123,124,-11,4,69,39,750,-109,-382,14,27,20,442,-33,-166,7,32,20,893,-37,-156,-8,14,-17,460,-39,-111,13,-13,14,430,-32,-166,-13,10,-25,186,-54,26,6,-11,14,79,96,-72,-8,11,-14,28,-122,70,6,-17,7,-77,158,-18,-5,11,-6,2,-90,-11,6,-8,7,-43,26,-7,0,2,-3,22,30,35,-4,-3,-2,-13,32,0,4,6,6,24,-46,-2,-1,-4,-2,71,-31,-18,0,7,-2,-49,54,75,-3,-14,-4,-67,-30,-95,t_left
-39,-139,-96,3590,-606,-952,-13,-39,-34,-329,302,-182,-29,-5,-57,125,-287,22,-29,15,-63,-1194,-58,368,-16,-11,-38,-727,406,631,7,-16,-40,-1439,141,69,-7,24,9,-1217,174,364,16,-26,31,-1144,339,402,13,2,69,-201,169,80,23,1,43,-578,190,65,11,31,53,621,-156,18,20,37,36,-170,-108,11,29,17,35,266,-96,-76,10,40,32,225,-99,12,23,21,24,699,-6,-99,-2,36,2,493,-58,-244,7,7,5,304,-164,-131,9,2,2,420,102,-134,-18,9,-23,132,-170,-42,13,-2,11,-12,-33,-48,-11,1,-5,-39,137,189,14,10,3,64,-175,-226,-1,-7,-4,34,88,36,-3,9,4,53,-93,-13,2,-7,-7,0,65,-67,4,9,9,55,-48,-10,-9,-6,-3,-16,27,-3,8,1,1,-41,-6,38,-2,0,0,69,18,-35,2,5,0,-54,3,83,t_left
-33,-139,-88,3655,-203,-1797,-18,-20,-24,694,52,-133,-65,-12,-109,-1173,-506,625,-15,-27,-54,-1300,180,696,17,-46,-23,-1107,156,337,-13,16,-9,-605,215,-10,-5,19,5,-1097,33,344,7,-3,20,-1397,335,625,23,-10,52,-346,114,-116,10,24,62,-627,-256,-84,11,34,49,39,74,72,13,43,49,15,269,376,24,26,53,414,-106,108,23,43,31,663,-150,-297,7,41,10,503,-95,-245,7,22,10,928,-1,-425,-7,4,-29,312,-3,34,6,-7,5,240,-36,-113,-10,16,-3,234,-63,-64,7,-18,-10,-11,-33,-108,2,6,3,-11,-19,71,0,-2,6,66,50,38,-4,3,0,58,-12,-92,6,-5,0,-42,50,88,-11,-2,-4,-63,-93,-72,4,7,5,-68,78,121,1,-7,1,63,-74,-87,-7,5,-7,-30,46,73,1,-3,6,30,-52,-60,10,-5,-12,-74,19,7,t_left
-49,-134,-69,4106,-546,-1498,-31,-18,-64,-688,-56,485,-23,-50,-55,-537,217,236,-9,-31,-53,-611,-74,131,-13,17,-18,-372,105,-78,-16,12,-40,-894,190,422,-5,-7,-18,-1170,90,309,-6,14,-8,-1916,115,561,28,-7,68,-765,347,369,19,-10,66,-455,-195,76,21,34,49,-265,246,32,30,21,67,137,-65,4,13,53,53,227,-125,-126,12,73,25,362,-51,-256,29,14,51,1111,28,-241,-15,40,1,1437,-199,-259,-7,-24,-36,469,1,-236,4,-12,-12,-70,38,122,-6,6,6,26,-14,-43,6,-8,-8,-79,-62,-59,2,1,5,19,72,40,-1,4,-5,8,-82,29,5,-10,8,-13,130,30,-8,12,-4,43,-86,-48,4,-11,2,-20,7,-29,-6,8,-6,-11,24,83,6,-7,8,27,-33,-50,0,6,-2,13,-33,-14,-3,-8,-5,-77,64,84,6,-6,3,-12,-27,-90,t_left
-45,-125,-100,3974,-337,-1233,-11,-45,-51,-65,139,-73,-43,-5,-71,-1127,-270,341,-15,-3,-49,-743,290,474,-5,-13,-55,-1380,172,454,0,1,19,-722,44,65,-3,9,6,-821,86,283,14,-12,24,-869,131,374,10,4,48,-108,-8,8,14,9,16,-967,-292,263,18,15,60,-178,429,327,27,35,48,-478,-313,4,33,45,64,414,153,-230,11,55,36,691,-57,-108,8,28,12,712,-51,-431,13,14,11,789,-113,-296,-14,13,-10,542,43,-86,7,-3,-4,120,-10,-71,-4,-4,-6,190,39,-59,0,12,7,100,-125,-3,-1,-14,-6,-30,63,-55,-6,7,-10,-23,-72,53,8,-7,16,24,0,-68,-9,6,-15,-71,15,52,12,-14,5,30,55,-28,-13,10,-11,-23,-89,0,9,0,19,38,95,32,-3,-7,-2,-15,-130,-149,-10,11,-10,-92,237,254,15,-8,16,118,-165,-139,t_left
-40,-121,-89,4797,-353,-1620,-41,-47,-73,-1292,-142,395,-13,-19,-30,89,102,39,-42,6,-105,-1660,-98,603,-7,3,-13,-1009,311,500,3,-31,-37,-1647,285,280,0,23,44,-1392,264,451,25,-15,63,-943,97,180,20,15,55,-700,85,246,13,55,59,-393,-223,506,42,5,76,710,47,-159,20,74,58,888,-581,-902,6,12,8,1619,378,-267,-21,31,-10,611,-207,-242,12,-30,-9,328,2,-29,-6,7,-10,258,162,96,-16,4,-8,-158,-88,46,20,-20,2,-368,-48,-9,-2,2,5,101,46,44,-1,11,12,-13,0,-96,-4,15,-14,-2,89,113,0,-7,10,117,-154,-164,3,-2,-3,-24,44,21,-4,10,-1,151,21,115,11,-13,10,-82,-114,-85,-13,1,-16,-14,125,-5,5,1,0,-45,-2,94,-1,8,11,-23,-1,-86,8,-1,-3,80,10,52,-11,0,-2,1,-47,-30,t_left
