AccX1,AccY1,AccZ1,GyrX1,GyrY1,GyrZ1,AccX2,AccY2,AccZ2,GyrX2,GyrY2,GyrZ2,AccX3,AccY3,AccZ3,GyrX3,GyrY3,GyrZ3,AccX4,AccY4,AccZ4,GyrX4,GyrY4,GyrZ4,AccX5,AccY5,AccZ5,GyrX5,GyrY5,GyrZ5,AccX6,AccY6,AccZ6,GyrX6,GyrY6,GyrZ6,AccX7,AccY7,AccZ7,GyrX7,GyrY7,GyrZ7,AccX8,AccY8,AccZ8,GyrX8,GyrY8,GyrZ8,AccX9,AccY9,AccZ9,GyrX9,GyrY9,GyrZ9,AccX10,AccY10,AccZ10,GyrX10,GyrY10,GyrZ10,AccX11,AccY11,AccZ11,GyrX11,GyrY11,GyrZ11,AccX12,AccY12,AccZ12,GyrX12,GyrY12,GyrZ12,AccX13,AccY13,AccZ13,GyrX13,GyrY13,GyrZ13,AccX14,AccY14,AccZ14,GyrX14,GyrY14,GyrZ14,AccX15,AccY15,AccZ15,GyrX15,GyrY15,GyrZ15,AccX16,AccY16,AccZ16,GyrX16,GyrY16,GyrZ16,AccX17,AccY17,AccZ17,GyrX17,GyrY17,GyrZ17,AccX18,AccY18,AccZ18,GyrX18,GyrY18,GyrZ18,AccX19,AccY19,AccZ19,GyrX19,GyrY19,GyrZ19,AccX20,AccY20,AccZ20,GyrX20,GyrY20,GyrZ20,AccX21,AccY21,AccZ21,GyrX21,GyrY21,GyrZ21,AccX22,AccY22,AccZ22,GyrX22,GyrY22,GyrZ22,AccX23,AccY23,AccZ23,GyrX23,GyrY23,GyrZ23,AccX24,AccY24,AccZ24,GyrX24,GyrY24,GyrZ24,AccX25,AccY25,AccZ25,GyrX25,GyrY25,GyrZ25,AccX26,AccY26,AccZ26,GyrX26,GyrY26,GyrZ26,AccX27,AccY27,AccZ27,GyrX27,GyrY27,GyrZ27,AccX28,AccY28,AccZ28,GyrX28,GyrY28,GyrZ28,AccX29,AccY29,AccZ29,GyrX29,GyrY29,GyrZ29,AccX30,AccY30,AccZ30,GyrX30,GyrY30,GyrZ30,Label
48,51,49,59,48,46,48,49,48,56,48,46,48,49,48,61,46,45,48,49,48,71,47,43,48,48,48,57,49,47,48,48,48,50,49,51,48,47,48,48,48,51,48,47,48,41,49,45,48,47,48,29,49,54,48,48,48,37,47,51,48,48,48,38,47,49,48,48,48,37,47,48,48,48,48,37,47,49,48,48,48,41,48,49,48,49,48,44,48,50,48,49,48,48,48,49,48,48,48,54,48,48,48,48,48,55,48,46,48,48,48,55,48,46,48,48,48,54,48,47,48,48,48,54,48,46,48,48,48,50,48,48,48,48,48,50,48,47,48,48,48,48,48,48,48,48,48,48,48,48,48,48,48,47,48,48,48,48,48,48,48,48,48,48,48,48,48,48,48,48,48,48,48,48,48,48,48,48,48,48,tilt_left
48,47,49,96,45,36,48,47,49,71,48,43,48,47,49,58,49,47,48,47,49,52,49,49,48,47,48,51,49,46,48,47,48,41,49,51,48,48,48,40,49,50,48,48,48,42,48,50,48,48,48,44,47,48,48,48,48,43,47,47,48,48,48,42,47,47,48,48,48,40,47,48,48,48,48,40,47,49,48,48,48,42,47,49,48,49,48,44,48,49,48,49,48,47,47,49,48,48,48,50,48,49,48,48,48,53,48,47,48,48,48,52,49,48,48,48,48,52,48,46,48,48,48,52,49,47,48,48,48,53,48,46,48,48,48,51,48,47,48,48,48,51,48,47,48,48,48,50,48,47,48,48,48,48,48,48,48,48,48,47,48,48,48,48,48,48,48,48,48,48,48,47,48,48,48,48,48,48,48,48,tilt_left
48,48,49,90,44,37,48,48,49,80,47,41,48,47,48,63,50,45,48,47,48,50,48,49,48,47,48,51,48,47,48,47,48,41,49,49,48,47,48,36,49,51,48,48,48,39,47,52,48,48,48,45,48,47,48,48,48,43,47,48,48,48,48,42,47,47,48,48,48,42,47,48,48,48,48,41,47,49,48,48,48,43,48,49,48,48,48,45,48,50,48,48,48,47,48,48,48,48,48,48,48,49,48,48,48,51,48,48,48,48,48,51,48,47,48,48,48,50,48,48,48,48,48,52,48,47,48,48,48,52,48,47,48,48,48,51,48,47,48,48,48,51,48,47,48,48,48,51,48,47,48,48,48,49,48,47,48,48,48,49,48,48,48,48,48,48,48,48,48,48,48,48,48,48,48,48,48,47,48,48,tilt_left
61,61,62,100,55,50,61,61,61,93,61,52,61,60,61,62,61,61,61,60,61,62,61,61,61,60,61,61,61,60,61,60,61,54,62,58,61,60,61,48,60,67,61,61,61,61,61,61,61,61,61,60,60,60,61,61,61,60,60,60,61,61,61,59,60,60,61,61,61,58,61,61,61,61,61,56,61,61,61,61,61,55,61,61,61,61,61,57,60,61,61,61,60,57,61,61,61,61,60,59,61,62,61,61,60,61,61,61,61,61,60,64,61,60,61,61,60,62,61,61,61,61,60,64,60,59,61,61,60,64,60,60,61,61,60,64,60,59,61,61,60,62,60,60,61,61,61,63,61,60,61,61,61,62,61,60,61,61,61,61,61,60,61,61,61,61,61,61,61,61,61,61,61,61,61,61,61,61,61,61,tilt_left
59,58,59,100,56,48,59,58,59,71,59,55,59,58,59,62,59,58,59,58,59,60,59,59,59,58,59,59,59,56,58,58,59,51,59,60,59,58,59,53,58,60,58,58,58,56,58,59,58,58,58,55,58,58,58,58,58,54,58,59,58,59,58,54,58,59,58,59,58,55,58,59,58,59,58,55,59,59,58,59,58,57,58,59,58,59,58,58,59,59,58,59,58,60,59,58,58,59,58,60,59,59,58,59,58,61,59,58,58,59,58,60,59,58,58,59,58,61,58,58,58,58,58,61,58,58,58,58,58,60,58,58,58,58,58,60,58,58,58,58,58,60,58,58,58,58,58,59,58,58,58,58,58,59,59,58,58,58,58,59,58,58,58,58,58,58,58,58,58,58,58,58,58,58,58,58,58,58,58,59,tilt_left
59,59,59,93,54,49,59,58,59,81,57,53,58,58,59,66,59,56,59,58,59,60,58,58,59,58,59,59,59,57,58,58,59,52,59,59,58,58,59,50,59,61,58,58,59,54,58,61,58,58,58,57,58,59,58,58,58,56,58,59,58,58,58,55,58,59,58,59,58,55,59,59,58,59,58,55,59,59,58,59,58,55,59,59,58,59,58,57,59,59,58,59,58,59,59,59,58,59,58,60,58,58,58,59,58,60,58,58,58,59,58,60,58,58,58,59,58,60,58,58,58,58,58,61,58,58,58,58,58,60,58,58,58,58,58,60,58,58,58,58,58,60,58,58,58,58,58,60,58,58,58,58,58,59,59,59,58,58,58,59,59,58,58,58,58,59,59,58,58,58,58,58,58,58,58,58,58,58,58,58,tilt_left
59,58,59,93,55,49,59,58,59,77,58,53,59,58,59,64,59,57,59,58,59,60,58,59,59,58,59,59,59,57,58,58,59,51,59,59,58,58,58,51,59,61,58,58,59,55,58,60,58,58,58,56,58,59,58,59,58,56,58,59,58,59,58,55,59,59,58,59,58,55,59,59,58,59,58,55,59,60,58,59,58,57,59,59,58,59,58,57,59,59,58,59,58,59,58,58,58,59,58,60,58,58,58,59,58,60,58,58,58,58,58,60,58,58,58,58,58,61,58,58,58,58,58,61,58,58,58,58,58,61,58,58,58,58,58,61,58,58,58,58,58,60,58,58,58,58,58,60,58,58,58,58,58,59,58,58,58,58,58,58,58,58,58,58,58,58,58,58,58,58,58,58,58,59,58,58,58,58,58,58,tilt_left
58,58,59,100,56,48,58,58,59,70,59,55,58,58,59,61,59,58,58,58,59,59,58,59,58,58,59,58,58,55,58,58,59,50,59,60,58,58,58,53,58,60,58,58,58,54,58,59,58,58,58,54,58,59,58,59,58,55,58,59,58,59,58,56,58,59,58,59,58,56,59,59,58,59,58,57,59,59,58,59,58,59,58,59,58,59,58,60,58,58,58,58,58,59,58,58,58,58,58,60,58,58,58,58,58,60,58,58,58,58,58,60,58,57,58,58,58,59,58,58,58,58,58,60,58,58,58,58,58,60,58,58,58,58,58,60,58,58,58,58,58,60,58,58,58,58,58,59,58,58,58,58,58,59,58,58,58,58,58,58,58,58,58,58,58,58,58,58,58,58,58,58,58,58,58,58,58,58,58,59,tilt_left
58,58,59,91,55,50,58,58,59,75,58,54,58,58,59,66,59,57,58,58,59,59,59,58,58,58,59,59,58,57,58,58,58,52,59,59,58,58,58,52,58,60,58,58,58,53,58,60,58,58,58,56,58,59,58,58,58,55,58,59,58,58,58,55,58,59,58,59,58,56,58,59,58,59,58,56,59,59,58,59,58,57,59,59,58,59,58,60,58,58,58,58,58,60,58,58,58,58,58,60,58,58,58,58,58,60,58,58,58,58,58,60,58,58,58,58,58,59,58,58,58,58,58,59,58,58,58,58,58,60,58,58,58,58,58,59,58,58,58,58,58,60,58,58,58,58,58,59,58,58,58,58,58,59,58,58,58,58,58,59,58,58,58,58,58,58,58,59,58,58,58,59,58,58,58,58,58,58,58,59,tilt_left
59,58,59,93,54,50,58,58,59,78,58,54,58,58,59,63,59,57,58,58,59,60,59,58,58,58,59,59,59,57,58,58,58,51,59,59,58,58,58,50,58,61,58,58,58,55,58,60,58,58,58,55,58,59,58,58,58,55,58,59,58,58,58,55,58,59,58,59,58,56,58,59,58,59,58,55,59,59,58,59,58,57,59,59,58,59,58,59,58,59,58,59,58,60,58,58,58,58,58,59,58,58,58,58,58,61,58,58,58,58,58,61,58,57,58,58,58,60,58,58,58,58,58,60,58,58,58,58,58,60,58,58,58,58,58,59,58,58,58,58,58,59,58,58,58,58,58,59,58,58,58,58,58,59,58,58,58,58,58,58,58,58,58,58,58,58,58,58,58,58,58,58,58,58,58,58,58,58,58,58,tilt_left
59,58,59,79,56,53,58,58,59,75,57,54,58,58,59,67,59,56,58,58,59,59,58,58,58,58,59,59,58,58,58,58,58,54,59,58,58,58,58,51,59,59,58,58,58,52,58,61,58,58,58,55,58,59,58,58,58,54,59,59,58,59,58,54,59,59,58,59,58,55,59,59,58,59,58,56,59,59,58,59,58,59,59,59,58,59,58,60,58,58,58,58,58,61,58,58,58,58,58,61,58,58,58,58,58,60,58,58,58,58,58,59,58,58,58,58,58,60,58,58,58,58,58,60,58,58,58,58,58,60,58,58,58,58,58,60,58,58,58,58,58,60,58,58,58,58,58,59,58,58,58,58,58,59,58,59,58,58,58,59,58,58,58,58,58,58,58,59,58,58,58,59,58,58,58,58,58,58,58,58,tilt_left
59,58,59,70,57,55,58,58,59,67,57,56,58,58,59,68,58,56,58,58,59,67,59,56,58,58,59,60,59,58,58,58,58,57,59,59,58,58,58,55,59,59,58,58,58,53,59,58,58,58,58,52,58,61,58,58,58,56,58,59,58,58,58,56,58,59,58,58,58,56,58,59,58,58,58,56,58,59,58,58,58,55,59,59,58,59,58,56,59,59,58,59,58,57,59,59,58,59,58,58,59,59,58,59,58,59,58,59,58,58,58,60,58,58,58,58,58,60,58,58,58,58,58,60,58,58,58,58,58,60,58,58,58,58,58,59,58,58,58,58,58,59,58,58,58,58,58,59,58,58,58,58,58,60,58,58,58,58,58,60,58,58,58,58,58,60,58,58,58,58,58,59,58,58,58,58,58,59,58,58,tilt_left
59,58,59,85,55,50,58,58,59,75,57,54,58,58,59,68,59,56,58,58,59,59,58,58,58,58,59,59,58,57,58,58,58,53,59,60,58,58,58,51,59,59,58,58,58,52,58,61,58,58,58,56,58,59,58,58,58,56,58,59,58,58,58,55,59,59,58,59,58,55,59,59,58,59,58,56,59,59,58,59,58,58,59,59,58,59,58,58,58,59,58,59,58,60,58,58,58,58,58,60,58,58,58,58,58,60,58,58,58,58,58,59,58,58,58,58,58,60,58,58,58,58,58,59,58,58,58,58,58,60,58,58,58,58,58,60,58,58,58,58,58,60,58,58,58,58,58,59,58,58,58,58,58,59,58,58,58,58,58,59,58,58,58,58,58,59,58,58,58,58,58,59,58,58,58,58,58,59,58,58,tilt_left
59,58,59,77,55,53,58,58,59,75,57,54,58,58,59,68,59,56,58,58,59,60,59,58,58,58,59,59,58,58,58,58,58,55,59,59,58,58,58,51,59,59,58,58,58,52,58,60,58,58,58,55,58,59,58,58,58,55,58,59,58,58,58,55,58,59,58,59,58,55,59,59,58,59,58,56,59,59,58,59,58,57,59,59,58,59,58,59,59,59,58,59,58,60,58,58,58,58,58,60,58,58,58,58,58,60,58,58,58,58,58,60,58,58,58,58,58,60,58,58,58,58,58,60,58,58,58,58,58,60,58,58,58,58,58,60,58,58,58,58,58,59,58,58,58,58,58,59,58,58,58,58,58,59,58,58,58,58,58,58,58,58,58,58,58,59,58,58,58,58,58,58,58,58,58,58,58,59,58,58,tilt_left
59,58,59,87,55,51,58,58,59,80,58,53,58,57,59,63,59,57,58,58,59,59,58,58,58,58,59,58,58,58,58,58,58,53,59,58,58,58,58,49,59,61,58,59,59,55,58,60,58,58,58,56,58,59,58,58,58,54,58,59,58,58,58,54,58,59,58,59,58,54,59,59,58,59,58,54,59,60,58,59,58,57,59,59,58,59,58,60,58,58,58,58,58,61,58,58,58,58,58,61,58,58,58,58,58,62,58,57,58,58,58,61,58,58,58,58,58,60,58,58,58,58,58,60,58,58,58,58,58,60,58,58,58,58,58,60,58,58,58,58,58,59,58,58,58,58,58,59,58,58,58,58,58,59,58,58,58,58,58,58,58,58,58,58,58,58,58,58,58,58,58,58,58,58,58,58,58,58,58,58,tilt_left
59,58,59,71,56,55,58,58,59,69,57,56,58,58,59,69,58,56,58,58,59,66,59,57,58,58,59,58,58,58,58,58,58,56,59,59,58,58,58,54,59,59,58,58,58,52,59,59,58,58,58,51,58,61,58,58,58,56,58,59,58,58,58,54,58,59,58,59,58,55,58,59,58,59,58,56,59,59,58,59,58,56,59,59,58,59,58,58,59,59,58,59,58,60,58,58,58,58,58,60,58,58,58,58,58,59,58,58,58,58,58,60,58,58,58,58,58,60,58,58,58,58,58,59,58,58,58,58,58,60,58,58,58,58,58,60,58,58,58,58,58,59,58,58,58,58,58,60,58,58,58,58,58,59,58,58,58,58,58,60,58,58,58,58,58,58,58,59,58,58,58,59,58,58,58,58,58,58,58,59,tilt_left
59,58,59,91,54,50,58,58,59,76,57,54,58,58,59,69,59,56,59,58,59,59,58,58,58,58,59,59,58,57,58,58,59,52,59,60,58,58,58,51,59,59,58,58,58,50,58,62,58,58,58,54,58,59,58,58,58,53,59,59,58,59,58,54,59,59,58,59,58,55,59,59,58,59,58,57,59,59,58,59,58,59,59,59,58,59,58,61,58,58,58,58,58,61,58,57,58,58,58,61,58,58,58,58,58,62,58,57,58,58,58,61,58,58,58,58,58,61,58,58,58,58,58,60,58,58,58,58,58,59,58,58,58,58,58,59,58,58,58,58,58,58,58,58,58,58,58,58,58,58,58,58,58,58,58,58,58,58,58,59,58,58,58,58,58,58,58,59,58,58,58,59,58,58,58,58,58,58,58,58,tilt_left
59,58,59,94,55,49,58,58,59,76,59,54,58,58,59,60,59,58,58,58,59,59,59,58,58,58,59,58,58,56,58,58,58,51,59,59,58,58,58,49,58,62,58,59,58,53,58,60,58,59,58,54,58,60,58,59,58,55,58,59,58,59,58,56,59,59,58,59,58,58,59,59,58,59,58,60,59,58,58,58,58,61,58,58,58,58,58,60,58,58,58,58,58,60,58,57,58,58,58,60,58,58,58,58,58,60,58,58,58,58,58,59,58,58,58,58,58,60,58,58,58,58,58,60,58,58,58,58,58,59,58,58,58,58,58,59,58,58,58,58,58,59,58,58,58,58,58,59,58,58,58,58,58,58,58,58,58,58,58,58,58,58,58,58,58,58,58,58,58,58,58,58,58,58,58,58,58,58,58,58,tilt_left
59,58,59,86,54,50,58,58,59,75,57,54,58,58,59,67,59,56,58,58,59,59,59,58,58,58,59,59,58,57,58,58,59,53,59,59,58,58,58,51,59,59,58,58,58,52,58,61,58,58,58,56,58,59,58,58,58,54,58,59,58,59,58,54,59,60,58,59,58,55,59,59,58,59,58,56,59,59,58,59,58,57,59,59,58,59,58,59,59,58,58,58,58,61,58,57,58,58,58,60,58,58,58,58,58,60,58,58,58,58,58,60,58,58,58,58,58,60,58,58,58,58,58,59,58,58,58,58,58,59,58,58,58,58,58,58,58,58,58,58,58,58,58,58,58,58,58,60,58,58,58,58,58,60,58,58,58,58,58,60,58,58,58,58,58,60,58,58,58,58,58,59,58,58,58,58,58,59,58,58,tilt_left
59,59,59,78,57,53,58,58,59,71,57,55,58,58,59,69,57,56,58,58,59,66,59,56,58,58,59,60,59,57,58,58,59,55,59,59,58,58,59,53,59,60,58,58,58,52,59,59,58,58,58,51,58,61,58,58,58,55,58,60,58,58,58,55,58,59,58,58,58,54,58,59,58,59,58,55,59,59,58,59,58,56,59,59,58,59,58,56,59,59,58,59,58,59,59,59,58,59,58,61,58,58,58,58,58,60,58,57,58,58,58,60,58,58,58,58,58,61,58,57,58,58,58,60,58,58,58,58,58,60,58,58,58,58,58,60,58,58,58,58,58,59,58,58,58,58,58,59,58,58,58,58,58,59,58,58,58,58,58,59,58,58,58,58,58,58,58,59,58,58,58,59,58,58,58,58,58,58,58,58,tilt_left
59,58,59,80,55,52,58,58,59,73,57,55,58,58,59,68,59,56,58,58,59,60,59,58,58,58,59,59,58,57,58,58,58,54,59,59,58,58,58,52,59,59,58,58,58,52,58,60,58,58,58,56,58,59,58,58,58,55,58,59,58,58,58,55,58,59,58,59,58,55,58,59,58,59,58,56,59,59,58,59,58,56,59,59,58,59,58,58,59,59,58,59,58,60,58,58,58,58,58,60,58,57,58,58,58,59,58,58,58,58,58,61,58,58,58,58,58,60,58,58,58,58,58,60,58,58,58,58,58,58,58,58,58,58,58,59,58,58,58,58,58,59,58,58,58,58,58,60,58,58,58,58,58,59,58,58,58,58,58,60,58,58,58,58,58,59,58,58,58,58,58,59,58,58,58,58,58,58,58,59,tilt_left
59,58,59,78,55,53,58,58,59,75,56,54,58,58,59,73,59,55,58,58,59,59,59,58,58,58,59,59,59,58,58,58,59,55,59,59,58,58,58,51,59,58,58,58,58,50,58,62,58,59,58,57,58,59,58,58,58,56,58,58,58,58,58,56,58,59,58,58,58,57,58,59,58,58,58,56,59,59,58,59,58,56,59,59,58,59,58,57,59,59,58,59,58,59,58,58,58,58,58,57,59,59,58,59,58,59,58,58,58,58,58,60,58,58,58,58,58,59,58,58,58,58,58,59,58,59,58,58,58,60,58,58,58,58,58,59,58,58,58,58,58,59,58,58,58,58,58,60,58,58,58,58,58,60,58,58,58,58,58,60,58,58,58,58,58,59,58,58,58,58,58,59,58,58,58,58,58,58,58,59,tilt_left
58,58,59,94,56,49,58,58,59,75,60,54,58,58,59,59,59,58,58,58,59,59,59,58,58,58,59,58,58,56,58,58,58,51,59,59,58,58,58,51,58,62,58,58,58,56,58,59,58,58,58,56,58,59,58,58,58,55,58,59,58,59,58,55,59,59,58,59,58,55,59,59,58,59,58,57,59,59,58,59,58,58,59,59,58,59,58,60,58,58,58,58,58,60,58,58,58,58,58,60,58,58,58,58,58,60,58,57,58,58,58,60,58,58,58,58,58,60,58,58,58,58,58,60,58,58,58,58,58,60,58,58,58,58,58,60,58,58,58,58,58,59,58,58,58,58,58,59,58,58,58,58,58,58,58,58,58,58,58,58,58,58,58,58,58,58,58,58,58,58,58,58,58,59,58,58,58,58,58,58,tilt_left
58,57,59,93,56,50,58,58,59,74,59,55,58,58,59,62,59,58,58,58,59,59,59,58,58,58,59,58,58,56,58,58,59,51,59,59,58,58,58,52,58,61,58,58,58,55,58,59,58,58,58,54,58,59,58,59,58,55,58,59,58,59,58,55,58,60,58,59,58,55,59,59,58,59,58,56,59,60,58,59,58,59,59,58,58,59,58,60,58,58,58,58,58,61,58,58,58,58,58,61,58,58,58,58,58,61,58,58,58,58,58,61,58,58,58,58,58,60,58,58,58,58,58,60,58,58,58,58,58,60,58,58,58,58,58,59,58,58,58,58,58,59,58,58,58,58,58,59,58,58,58,58,58,58,58,58,58,58,58,58,58,58,58,58,58,58,58,58,58,58,58,58,58,58,58,58,58,58,58,58,tilt_left
59,58,59,80,56,52,58,58,59,76,57,54,58,58,59,67,59,56,58,58,59,60,59,58,58,58,59,59,58,58,58,58,58,54,59,58,58,58,58,51,59,60,58,58,58,53,58,60,58,58,58,56,58,59,58,58,58,55,58,59,58,58,58,55,58,59,58,59,58,54,59,59,58,59,58,56,59,59,58,59,58,57,59,59,58,59,58,59,59,59,58,59,58,60,58,58,58,58,58,61,58,57,58,58,58,60,58,58,58,58,58,60,58,58,58,58,58,60,58,58,58,58,58,59,58,58,58,58,58,59,58,58,58,58,58,60,58,58,58,58,58,60,58,58,58,58,58,59,58,58,58,58,58,60,58,58,58,58,58,59,58,58,58,58,58,59,58,58,58,58,58,58,58,59,58,58,58,58,58,58,tilt_left
58,58,59,96,55,49,58,58,59,76,60,54,58,58,59,59,59,58,58,58,59,59,58,58,58,58,59,58,58,56,58,58,58,51,59,59,58,58,58,51,58,61,58,58,58,56,58,59,58,58,58,55,58,59,58,58,58,55,58,59,58,59,58,56,58,59,58,59,58,56,59,59,58,59,58,57,59,59,58,59,58,58,59,59,58,59,58,60,58,58,58,58,58,60,58,58,58,58,58,60,58,58,58,58,58,60,58,58,58,58,58,60,58,58,58,58,58,60,58,58,58,58,58,60,58,58,58,58,58,60,58,58,58,58,58,59,58,58,58,58,58,59,58,58,58,58,58,59,58,58,58,58,58,58,58,58,58,58,58,58,58,58,58,58,58,58,58,58,58,58,58,59,58,58,58,58,58,58,58,58,tilt_left
58,58,59,95,56,49,58,58,59,72,59,55,58,58,59,59,58,58,58,58,59,59,58,58,58,58,59,58,58,56,58,58,58,51,59,60,58,58,58,51,58,61,58,58,58,55,58,59,58,58,58,54,58,59,58,59,58,56,58,59,58,59,58,56,58,59,58,59,58,57,59,59,58,59,58,59,58,59,58,59,58,60,58,58,58,58,58,60,58,58,58,58,58,60,58,58,58,58,58,60,58,58,58,58,58,60,58,58,58,58,58,60,58,58,58,58,58,60,58,58,58,58,58,60,58,58,58,58,58,59,58,58,58,58,58,59,58,58,58,58,58,59,58,58,58,58,58,58,58,58,58,58,58,59,58,58,58,58,58,58,58,59,58,58,58,59,58,58,58,58,58,58,58,58,58,58,58,58,58,58,tilt_left
59,58,59,82,56,53,58,58,59,72,58,56,58,58,59,63,59,58,58,58,59,59,58,58,58,58,59,59,58,57,58,58,58,53,59,59,58,58,58,53,58,60,58,58,58,55,58,59,58,58,58,55,58,59,58,58,58,55,58,59,58,59,58,55,58,59,58,59,58,55,59,59,58,59,58,56,59,59,58,59,58,58,59,59,58,59,58,59,58,58,58,59,58,61,58,58,58,58,58,61,58,58,58,58,58,60,58,58,58,58,58,60,58,58,58,58,58,59,58,58,58,58,58,59,58,58,58,58,58,60,58,58,58,58,58,59,58,58,58,58,58,60,58,58,58,58,58,59,58,58,58,58,58,59,58,58,58,58,58,58,58,58,58,58,58,58,58,58,58,58,58,58,58,58,58,58,58,58,58,58,tilt_left
58,58,59,93,55,50,58,58,59,76,58,54,58,58,59,63,59,57,58,58,59,59,58,58,58,58,59,59,58,56,58,58,58,51,59,59,58,58,58,51,58,61,58,58,58,54,58,60,58,58,58,55,58,59,58,58,58,55,58,59,58,59,58,55,59,59,58,59,58,56,59,59,58,59,58,57,59,59,58,59,58,58,59,59,58,59,58,60,58,58,58,58,58,60,58,58,58,58,58,60,58,58,58,58,58,61,58,58,58,58,58,60,58,58,58,58,58,60,58,58,58,58,58,59,58,58,58,58,58,59,58,58,58,58,58,59,58,58,58,58,58,59,58,58,58,58,58,59,58,58,58,58,58,59,58,58,58,58,58,58,58,58,58,58,58,58,58,58,58,58,58,58,58,58,58,58,58,58,58,58,tilt_left
59,58,59,82,55,51,59,58,59,75,57,53,58,58,59,68,59,56,58,58,59,58,58,58,58,58,59,58,58,57,58,58,58,53,59,59,58,58,58,51,59,60,58,58,58,50,58,61,58,58,58,55,58,60,58,59,58,55,58,59,58,59,58,56,59,59,58,59,58,56,59,59,58,59,58,57,59,59,58,59,58,60,59,58,58,58,58,60,58,58,58,58,58,60,58,58,58,58,58,60,58,58,58,58,58,60,58,57,58,58,58,60,58,58,58,58,58,59,58,58,58,58,58,60,58,58,58,58,58,59,58,58,58,58,58,60,58,58,58,58,58,59,58,58,58,58,58,59,58,58,58,58,58,59,58,58,58,58,58,58,58,58,58,58,58,58,58,58,58,58,58,58,58,58,58,58,58,58,58,58,tilt_left
59,58,59,80,56,52,58,58,59,70,57,55,58,58,59,69,59,56,58,58,59,58,59,58,58,58,59,59,58,57,58,58,58,54,59,60,58,58,58,53,59,58,58,58,58,49,58,61,58,59,58,55,58,60,58,58,58,55,58,59,58,59,58,56,58,59,58,59,58,56,59,59,58,59,58,58,59,59,58,59,58,60,59,58,58,58,58,60,58,58,58,58,58,60,58,58,58,58,58,59,58,58,58,58,58,60,58,58,58,58,58,59,58,58,58,58,58,59,58,58,58,58,58,60,58,58,58,58,58,60,58,58,58,58,58,59,58,58,58,58,58,59,58,58,58,58,58,59,58,58,58,58,58,59,58,58,58,58,58,58,58,58,58,58,58,58,58,58,58,58,58,58,58,58,58,58,58,58,58,58,tilt_left
58,58,59,95,57,50,58,58,59,69,59,56,58,58,59,60,59,58,58,58,59,59,59,58,58,58,59,58,58,56,58,58,58,51,59,60,58,58,58,54,58,60,58,58,58,56,58,59,58,58,58,54,58,59,58,59,58,55,58,59,58,59,58,55,58,59,58,59,58,56,59,59,58,59,58,56,59,60,58,59,58,60,59,58,58,58,58,59,58,58,58,59,58,60,58,58,58,58,58,61,58,58,58,58,58,61,58,58,58,58,58,61,58,58,58,58,58,60,58,58,58,58,58,60,58,58,58,58,58,59,58,58,58,58,58,59,58,58,58,58,58,58,58,59,58,58,58,59,58,58,58,58,58,58,58,59,58,58,58,59,58,58,58,58,58,58,58,59,58,58,58,59,58,58,58,58,58,59,58,58,tilt_left
58,58,59,94,55,49,58,58,59,77,58,54,58,57,59,60,59,58,58,58,59,59,59,58,58,58,59,58,58,57,58,58,58,51,59,59,58,58,58,50,58,62,58,58,58,55,58,59,58,58,58,54,58,59,58,59,58,54,58,59,58,59,58,55,59,59,58,59,58,55,59,59,58,59,58,57,59,59,58,59,58,60,58,58,58,58,58,61,58,58,58,58,58,61,58,58,58,58,58,61,58,58,58,58,58,61,58,57,58,58,58,60,58,58,58,58,58,60,58,58,58,58,58,60,58,58,58,58,58,59,58,58,58,58,58,59,58,58,58,58,58,59,58,58,58,58,58,59,58,58,58,58,58,58,58,58,58,58,58,59,58,58,58,58,58,58,58,58,58,58,58,58,58,58,58,58,58,58,58,58,tilt_left
59,58,59,73,56,54,58,58,59,68,58,56,58,58,59,64,58,57,58,58,59,63,59,57,58,58,59,60,58,57,58,58,58,56,59,59,58,58,58,55,59,59,58,58,58,55,58,59,58,58,58,55,58,59,58,58,58,57,58,59,58,58,58,56,58,59,58,58,58,55,58,59,58,58,58,55,58,59,58,59,58,55,58,59,58,59,58,56,59,59,58,59,58,56,59,59,58,59,58,58,59,59,58,59,58,59,58,58,58,58,58,60,58,58,58,58,58,60,58,58,58,58,58,60,58,58,58,58,58,60,58,58,58,58,58,60,58,58,58,58,58,60,58,58,58,58,58,59,58,58,58,58,58,59,58,58,58,58,58,59,58,58,58,58,58,59,58,58,58,58,58,59,58,58,58,58,58,59,58,58,tilt_left
59,57,60,44,58,61,58,58,59,49,59,61,58,58,59,52,59,60,58,58,59,55,59,59,58,58,59,56,59,59,58,59,58,59,59,59,58,59,58,60,58,58,58,58,58,61,58,58,58,58,58,60,58,58,58,58,58,60,58,58,58,58,58,60,58,58,58,58,58,59,58,58,58,58,58,59,58,58,58,58,58,59,58,58,58,58,58,59,58,58,58,58,58,59,58,58,58,58,58,59,58,58,58,58,58,59,58,58,58,58,58,59,58,58,58,58,58,59,58,58,58,58,58,58,58,58,58,58,58,59,58,58,58,58,58,59,58,58,58,58,58,59,58,58,58,58,58,59,58,59,58,58,58,59,58,58,58,58,58,58,58,59,58,58,58,58,58,58,58,58,58,58,58,58,58,58,58,58,58,58,tilt_left
59,58,59,75,56,54,58,58,59,64,58,57,58,58,59,66,58,57,58,58,59,65,58,57,58,58,59,62,59,56,58,58,58,56,59,60,58,58,58,57,59,59,58,58,58,54,59,59,58,58,58,52,58,59,58,58,58,52,58,60,58,58,58,52,58,60,58,59,58,53,59,60,58,59,58,54,59,59,58,59,58,55,59,59,58,59,58,58,59,59,58,59,58,61,58,58,58,58,58,62,58,58,58,58,58,61,58,57,58,58,58,61,58,58,58,58,58,61,58,58,58,58,58,60,58,58,58,58,58,60,58,58,58,58,58,60,58,58,58,58,58,59,58,58,58,58,58,59,58,58,58,58,58,58,58,58,58,58,58,58,58,58,58,58,58,58,58,58,58,58,58,58,58,58,58,58,58,58,58,58,tilt_left
59,58,59,77,56,53,58,58,59,68,58,56,58,58,59,67,58,56,58,58,59,65,59,57,58,58,59,59,58,57,58,58,58,55,59,60,58,58,58,54,59,59,58,58,58,53,58,59,58,58,58,52,58,61,58,58,58,55,58,59,58,58,58,54,58,59,58,59,58,55,58,59,58,59,58,56,59,59,58,59,58,57,59,59,58,59,58,59,59,59,58,59,58,60,58,58,58,58,58,61,58,58,58,58,58,60,58,58,58,58,58,61,58,58,58,58,58,60,58,58,58,58,58,60,58,58,58,58,58,60,58,58,58,58,58,60,58,58,58,58,58,60,58,58,58,58,58,59,58,58,58,58,58,59,58,58,58,58,58,58,58,58,58,58,58,58,58,58,58,58,58,58,58,59,58,58,58,58,58,58,tilt_left
58,58,59,69,57,55,58,58,59,71,57,55,58,58,59,70,58,55,58,58,59,60,59,58,58,58,59,59,59,58,58,58,58,56,59,59,58,58,58,53,59,58,58,58,58,51,58,61,58,58,58,55,58,59,58,58,58,54,58,59,58,58,58,54,58,59,58,59,58,55,59,59,58,59,58,56,58,59,58,59,58,57,59,59,58,59,58,58,59,59,58,59,58,61,59,58,58,58,58,60,58,58,58,58,58,60,58,58,58,58,58,60,58,58,58,58,58,60,58,58,58,58,58,60,58,58,58,58,58,60,58,58,58,58,58,59,58,58,58,58,58,60,58,58,58,58,58,60,58,58,58,58,58,59,58,58,58,58,58,58,58,58,58,58,58,58,58,58,58,58,58,58,58,58,58,58,58,58,58,58,tilt_left
58,58,59,83,56,52,58,58,59,71,58,55,58,58,59,69,59,56,58,58,59,61,59,58,58,58,59,59,58,57,58,58,58,53,59,60,58,58,58,53,59,58,58,58,58,51,58,60,58,58,58,54,58,60,58,58,58,54,58,59,58,59,58,54,59,59,58,59,58,56,59,59,58,59,58,56,59,59,58,59,58,58,59,59,58,59,58,60,58,58,58,59,58,61,58,58,58,58,58,60,58,58,58,58,58,60,58,58,58,58,58,60,58,58,58,58,58,59,58,58,58,58,58,59,58,58,58,58,58,59,58,58,58,58,58,59,58,58,58,58,58,59,58,58,58,58,58,59,58,58,58,58,58,59,58,58,58,58,58,59,58,58,58,58,58,59,58,58,58,58,58,59,58,58,58,58,58,59,58,58,tilt_left
58,58,59,78,57,54,58,58,59,68,58,56,58,58,59,66,58,57,58,58,59,64,58,57,58,58,59,62,59,57,58,58,58,55,59,59,58,58,58,55,59,59,58,58,58,54,58,59,58,58,58,54,58,59,58,58,58,53,58,60,58,58,58,55,58,59,58,58,58,55,58,59,58,59,58,55,59,59,58,59,58,56,59,59,58,59,58,57,59,59,58,59,58,58,58,59,58,59,58,60,58,58,58,58,58,60,58,58,58,58,58,60,58,58,58,58,58,60,58,58,58,58,58,60,58,58,58,58,58,59,58,58,58,58,58,59,58,58,58,58,58,59,58,58,58,58,58,59,58,58,58,58,58,59,58,58,58,58,58,59,58,58,58,58,58,59,58,58,58,58,58,59,58,58,58,58,58,59,58,58,tilt_left
59,59,59,81,54,51,58,58,59,75,57,54,58,58,59,66,58,56,58,58,59,62,59,57,58,58,59,59,59,57,58,58,58,54,59,59,58,58,58,51,59,60,58,58,58,53,58,59,58,58,58,53,58,60,58,58,58,56,58,59,58,58,58,54,58,59,58,59,58,56,58,59,58,59,58,56,58,59,58,59,58,58,59,58,58,59,58,58,58,60,58,59,58,61,58,57,58,58,58,59,58,58,58,58,58,60,58,58,58,58,58,60,58,58,58,58,58,60,58,58,58,58,58,59,58,58,58,58,58,59,58,58,58,58,58,59,58,58,58,58,58,60,58,58,58,58,58,59,58,58,58,58,58,60,58,58,58,58,58,60,58,58,58,58,58,59,58,58,58,58,58,58,58,58,58,58,58,59,58,58,tilt_left
58,58,59,69,58,55,58,58,59,67,57,56,58,58,59,68,58,56,58,58,59,67,59,56,58,58,59,58,59,58,58,58,58,57,59,60,58,58,58,54,59,59,58,58,58,52,59,58,58,58,58,51,58,62,58,58,58,58,58,59,58,58,58,55,58,59,58,58,58,55,58,59,58,59,58,54,59,59,58,59,58,56,59,59,58,59,58,56,59,59,58,59,58,58,59,59,58,59,58,60,58,58,58,58,58,61,58,57,58,58,58,60,58,58,58,58,58,60,58,58,58,58,58,60,58,58,58,58,58,59,58,58,58,58,58,59,58,58,58,58,58,59,58,58,58,58,58,59,58,58,58,58,58,60,58,58,58,58,58,59,58,58,58,58,58,60,58,58,58,58,58,59,58,58,58,58,58,59,58,58,tilt_left
59,58,59,76,56,53,58,58,59,64,57,56,58,58,59,69,58,56,58,58,59,65,59,57,58,58,59,58,59,57,58,58,58,55,59,60,58,58,58,55,59,58,58,58,58,51,59,60,58,58,58,52,58,60,58,58,58,56,58,59,58,58,58,55,58,59,58,58,58,54,58,59,58,59,58,55,58,59,58,59,58,56,59,59,58,59,58,57,59,59,58,59,58,59,58,58,58,59,58,60,58,58,58,58,58,60,58,58,58,58,58,60,58,58,58,58,58,60,58,58,58,58,58,59,58,58,58,58,58,59,58,58,58,58,58,59,58,58,58,58,58,60,58,58,58,58,58,59,58,58,58,58,58,60,58,58,58,58,58,59,58,58,58,58,58,59,58,58,58,58,58,59,58,59,58,58,58,59,58,58,tilt_left
59,58,59,76,55,53,58,58,59,78,57,53,58,58,59,72,59,55,58,58,59,58,59,58,58,58,59,59,58,58,58,58,58,54,59,58,58,58,58,50,59,58,58,58,58,50,58,62,58,58,58,58,58,59,58,58,58,55,58,59,58,58,58,56,58,59,58,59,58,56,58,59,58,59,58,57,58,59,58,59,58,56,59,59,58,59,58,58,59,59,58,59,58,59,58,58,58,59,58,59,58,58,58,58,58,59,58,58,58,58,58,60,58,58,58,58,58,60,58,58,58,58,58,60,58,58,58,58,58,60,58,58,58,58,58,59,58,58,58,58,58,59,58,58,58,58,58,58,58,58,58,58,58,59,58,58,58,58,58,59,58,58,58,58,58,59,58,58,58,58,58,59,58,58,58,58,58,59,58,58,tilt_left
58,57,59,78,56,53,58,58,59,70,57,55,58,58,59,72,58,55,58,58,59,61,59,58,58,58,59,59,59,57,58,58,58,54,59,60,58,58,58,54,59,57,58,58,58,50,58,61,58,58,58,54,58,60,58,58,58,55,58,59,58,58,58,55,58,59,58,59,58,55,58,59,58,59,58,56,59,59,58,59,58,57,59,59,58,59,58,58,59,59,58,59,58,60,58,58,58,58,58,60,58,58,58,58,58,59,58,58,58,58,58,60,58,58,58,58,58,60,58,58,58,58,58,59,58,58,58,58,58,59,58,58,58,58,58,60,58,58,58,58,58,60,58,58,58,58,58,59,58,58,58,58,58,60,58,58,58,58,58,59,58,58,58,58,58,59,58,58,58,58,58,58,58,59,58,58,58,59,58,58,tilt_left
59,58,59,84,56,51,58,58,59,75,58,54,58,58,59,59,59,58,58,58,59,62,59,58,58,58,59,59,58,57,58,58,58,53,59,59,58,58,58,51,58,61,58,58,58,55,58,59,58,58,58,51,58,60,58,58,58,53,58,60,58,59,58,54,59,59,58,59,58,55,59,59,58,59,58,58,59,59,58,59,58,60,59,58,58,58,58,60,58,58,58,58,58,61,58,57,58,58,58,60,58,58,58,58,58,61,58,57,58,58,58,59,58,58,58,58,58,60,58,57,58,58,58,59,58,58,58,58,58,60,58,57,58,58,58,59,58,59,58,58,58,59,58,58,58,58,58,59,58,58,58,58,58,58,58,59,58,58,58,59,58,58,58,58,58,58,58,59,58,58,58,59,58,58,58,58,58,58,58,58,tilt_left
59,58,59,79,57,53,58,58,59,66,58,57,58,58,59,68,58,56,58,58,59,66,59,57,58,58,59,60,58,57,58,58,58,55,59,61,58,58,58,56,58,58,58,58,58,52,59,59,58,58,58,52,58,60,58,58,58,55,58,59,58,58,58,55,58,59,58,58,58,54,58,59,58,59,58,55,58,59,58,59,58,55,59,59,58,59,58,57,59,59,58,59,58,59,58,59,58,59,58,61,58,58,58,58,58,61,58,58,58,58,58,61,58,58,58,58,58,61,58,57,58,58,58,60,58,58,58,58,58,60,58,58,58,58,58,59,58,58,58,58,58,59,58,58,58,58,58,59,58,58,58,58,58,58,58,58,58,58,58,58,58,58,58,58,58,59,58,58,58,58,58,59,58,58,58,58,58,58,58,59,tilt_left
59,58,59,81,56,51,58,58,59,75,58,54,58,58,59,65,59,57,58,58,59,60,58,58,58,58,59,59,58,57,58,58,58,54,59,59,58,58,58,52,58,60,58,58,58,54,58,60,58,58,58,56,58,59,58,58,58,56,58,59,58,58,58,54,58,59,58,59,58,56,59,59,58,59,58,55,59,59,58,59,58,57,59,59,58,59,58,58,58,59,58,59,58,60,58,58,58,58,58,59,58,58,58,58,58,60,58,58,58,58,58,61,58,57,58,58,58,59,58,58,58,58,58,60,58,58,58,58,58,61,58,58,58,58,58,60,58,58,58,58,58,59,58,59,58,58,58,59,58,58,58,58,58,59,58,58,58,58,58,58,58,59,58,58,58,59,58,58,58,58,58,58,58,59,58,58,58,59,58,58,tilt_left
56,55,57,100,57,45,56,55,56,58,56,56,56,55,56,58,56,56,56,56,56,56,56,56,56,56,56,56,56,52,56,56,56,47,56,60,56,56,56,54,56,57,56,56,56,52,56,57,56,56,56,53,56,57,56,56,56,53,56,57,56,56,56,54,56,57,56,56,56,55,56,57,56,56,56,57,56,56,56,56,56,58,56,56,56,56,56,58,56,56,56,56,56,57,56,56,56,56,56,58,56,56,56,56,56,57,56,56,56,56,56,58,56,55,56,56,56,57,56,56,56,56,56,57,56,55,56,56,56,57,56,56,56,56,56,57,56,55,56,56,56,56,56,56,56,56,56,56,56,56,56,56,56,56,56,56,56,56,56,56,56,56,56,56,56,56,56,56,56,56,56,56,56,56,56,56,56,56,56,56,tilt_left
56,55,57,65,56,54,56,56,57,63,56,54,56,56,56,64,56,54,56,56,56,60,56,55,56,56,56,58,56,56,56,56,56,55,56,57,56,56,56,54,56,56,56,56,56,52,56,57,56,56,56,52,56,57,56,56,56,54,56,56,56,56,56,53,56,57,56,56,56,52,56,57,56,56,56,51,56,57,56,56,56,52,56,57,56,56,56,53,56,57,56,56,56,55,56,57,56,56,56,58,56,56,56,56,56,59,56,55,56,56,56,59,56,55,56,56,56,58,56,55,56,56,56,58,56,55,56,56,56,58,56,55,56,56,56,58,56,56,56,56,56,57,56,56,56,56,56,57,56,56,56,56,56,57,56,56,56,56,56,57,56,56,56,56,56,56,56,56,56,56,56,56,56,56,56,56,56,56,56,56,tilt_left
56,55,57,70,55,52,56,56,57,65,55,53,56,56,56,66,56,53,56,56,56,59,56,55,56,56,56,57,56,55,56,56,56,54,56,57,56,56,56,53,56,56,56,56,56,50,56,58,56,56,56,53,56,57,56,56,56,55,56,56,56,56,56,55,56,56,56,56,56,54,56,56,56,56,56,53,56,57,56,56,56,53,56,57,56,56,56,54,56,57,56,56,56,54,56,57,56,56,56,55,56,57,56,56,56,57,56,57,56,56,56,58,56,55,56,56,56,57,56,56,56,56,56,58,56,56,56,56,56,57,56,56,56,56,56,57,56,56,56,56,56,56,56,56,56,56,56,57,56,56,56,56,56,57,56,56,56,56,56,57,56,56,56,56,56,57,56,56,56,56,56,57,56,56,56,56,56,57,56,56,tilt_left
56,55,57,71,55,52,56,56,57,69,55,52,56,56,56,66,56,53,56,56,56,59,56,55,56,56,56,57,56,56,56,56,56,53,56,57,56,56,56,51,56,56,56,56,56,50,56,58,56,56,56,53,56,57,56,56,56,54,56,56,56,56,56,53,56,56,56,56,56,52,56,57,56,56,56,51,56,57,56,56,56,51,56,57,56,56,56,52,56,57,56,56,56,56,56,56,56,56,56,58,56,56,56,56,56,59,56,55,56,56,56,60,56,56,56,56,56,60,56,55,56,56,56,58,56,55,56,56,56,58,56,56,56,56,56,58,56,56,56,56,56,57,56,56,56,56,56,57,56,56,56,56,56,57,56,56,56,56,56,57,56,56,56,56,56,56,56,56,56,56,56,56,56,56,56,56,56,56,56,56,tilt_left
56,56,57,75,54,50,56,56,57,74,55,52,56,56,56,64,56,54,56,56,56,59,56,55,56,56,56,57,56,56,56,56,56,53,57,56,56,56,56,49,56,57,56,56,56,51,56,58,56,56,56,54,56,57,56,56,56,53,56,57,56,56,56,53,56,57,56,56,56,52,56,57,56,56,56,53,56,56,56,56,56,53,56,57,56,56,56,56,56,56,56,56,56,56,56,57,56,56,56,58,56,55,56,56,56,57,56,56,56,56,56,58,56,55,56,56,56,57,56,56,56,56,56,58,56,55,56,56,56,57,56,56,56,56,56,58,56,55,56,56,56,57,56,56,56,56,56,57,56,56,56,56,56,57,56,56,56,56,56,57,56,56,56,56,56,56,56,56,56,56,56,56,56,56,56,56,56,56,56,56,tilt_left
56,55,57,80,54,49,56,56,57,69,56,53,56,56,56,65,57,53,56,55,56,57,56,56,56,56,56,57,56,55,56,56,56,52,57,58,56,56,56,51,56,56,56,56,56,50,56,58,56,56,56,53,56,57,56,56,56,52,56,57,56,56,56,52,56,57,56,56,56,53,56,57,56,56,56,53,56,57,56,56,56,55,56,57,56,56,56,57,56,56,56,56,56,58,56,56,56,56,56,58,56,56,56,56,56,58,56,56,56,56,56,58,56,55,56,56,56,57,56,55,56,56,56,57,56,56,56,56,56,57,56,56,56,56,56,56,56,56,56,56,56,57,56,56,56,56,56,56,56,56,56,56,56,57,56,56,56,56,56,57,56,56,56,56,56,57,56,56,56,56,56,57,56,56,56,56,56,57,56,56,tilt_left
56,55,57,72,55,52,56,56,57,67,55,53,56,56,56,65,56,54,56,56,56,62,56,55,56,56,56,58,56,55,56,56,56,54,56,57,56,56,56,52,57,57,56,56,56,51,56,57,56,56,56,51,56,57,56,56,56,53,56,57,56,56,56,53,56,57,56,56,56,53,56,57,56,56,56,53,56,57,56,56,56,54,56,56,56,56,56,55,56,57,56,56,56,56,56,56,56,56,56,58,56,56,56,56,56,58,56,55,56,56,56,57,56,56,56,56,56,57,56,56,56,56,56,57,56,56,56,56,56,58,56,56,56,56,56,56,56,56,56,56,56,57,56,56,56,56,56,57,56,56,56,56,56,56,56,56,56,56,56,56,56,57,56,56,56,57,56,55,56,56,56,57,56,55,56,56,56,56,56,56,tilt_left
56,55,57,74,55,52,56,56,57,69,55,53,56,56,56,65,56,54,56,56,56,59,56,56,56,56,56,57,56,56,56,56,56,53,56,57,56,56,56,51,56,56,56,56,56,51,56,58,56,56,56,54,56,57,56,56,56,54,56,56,56,56,56,53,56,57,56,56,56,52,56,57,56,56,56,53,56,57,56,56,56,54,56,57,56,56,56,54,56,57,56,56,56,56,56,57,56,56,56,58,56,56,56,56,56,58,56,55,56,56,56,57,56,56,56,56,56,57,56,56,56,56,56,57,56,56,56,56,56,57,56,56,56,56,56,57,56,56,56,56,56,56,56,56,56,56,56,57,56,56,56,56,56,57,56,55,56,56,56,57,56,56,56,56,56,57,56,56,56,56,56,57,56,56,56,56,56,57,56,56,tilt_left
56,55,57,74,55,51,56,56,57,66,55,53,56,56,56,67,55,53,56,56,56,64,57,54,56,56,56,57,56,55,56,56,56,53,57,58,56,56,56,52,57,56,56,56,56,49,56,56,56,56,56,49,56,59,56,56,56,51,56,57,56,56,56,51,56,57,56,56,56,52,56,57,56,56,56,53,56,57,56,56,56,54,56,58,56,56,56,58,56,56,56,56,56,58,56,56,56,56,56,59,56,55,56,56,56,58,56,56,56,56,56,59,56,55,56,56,56,57,56,56,56,56,56,57,56,55,56,56,56,56,56,56,56,56,56,56,56,56,56,56,56,56,56,56,56,56,56,57,56,56,56,56,56,57,56,56,56,56,56,57,56,56,56,56,56,57,56,56,56,56,56,57,56,56,56,56,56,56,56,56,tilt_left
56,56,57,81,53,50,56,56,57,77,54,51,56,56,56,67,56,53,56,56,56,60,56,55,56,56,56,57,56,56,56,56,56,51,57,56,56,56,56,48,57,58,56,56,56,49,56,58,56,56,56,51,56,58,56,56,56,52,56,57,56,56,56,52,56,57,56,56,56,53,56,57,56,56,56,53,56,57,56,56,56,54,56,57,56,56,56,56,56,57,56,56,56,58,56,55,56,56,56,57,56,56,56,56,56,58,56,56,56,56,56,58,56,55,56,56,56,59,56,55,56,56,56,57,56,55,56,56,56,57,56,56,56,56,56,57,56,56,56,56,56,58,56,55,56,56,56,57,56,56,56,56,56,57,56,55,56,56,56,56,56,56,56,56,56,56,56,56,56,56,56,56,56,56,56,56,56,56,56,56,tilt_left
56,56,57,69,55,52,56,56,57,68,55,53,56,56,57,68,56,53,56,55,56,61,56,55,56,56,56,58,56,56,56,56,56,54,56,57,56,56,56,51,56,55,56,56,56,48,56,58,56,56,56,49,56,58,56,56,56,50,56,57,56,56,56,51,56,57,56,56,56,53,56,57,56,56,56,54,56,57,56,56,56,57,56,56,56,56,56,59,56,56,56,56,56,59,56,55,56,56,56,58,56,56,56,56,56,58,56,55,56,56,56,58,56,56,56,56,56,57,56,56,56,56,56,57,56,56,56,56,56,57,56,56,56,56,56,57,56,56,56,56,56,57,56,56,56,56,56,57,56,56,56,56,56,57,56,56,56,56,56,56,56,56,56,56,56,56,56,56,56,56,56,56,56,56,56,56,56,56,56,56,tilt_left
57,57,58,93,53,47,57,57,57,85,58,50,57,56,57,57,57,57,57,57,57,58,57,57,57,57,57,57,57,56,57,57,57,50,58,56,57,57,57,45,57,62,57,57,57,54,57,58,57,57,57,51,57,58,57,57,57,52,57,58,57,57,57,54,57,58,57,57,57,54,57,58,57,57,57,57,57,58,57,57,57,60,57,57,57,57,57,60,57,56,57,57,57,60,57,56,57,57,57,60,57,56,57,57,57,59,57,56,57,57,57,59,57,57,57,57,57,58,57,57,57,57,57,58,57,56,57,57,57,58,57,57,57,57,57,58,57,57,57,57,57,57,57,57,57,57,57,58,57,57,57,57,57,57,57,57,57,57,57,57,57,57,57,57,57,57,57,57,57,57,57,57,57,57,57,57,57,57,57,57,tilt_left
57,56,58,73,56,52,57,57,57,53,57,58,57,57,57,59,57,56,57,57,57,57,57,57,57,57,57,56,57,55,57,57,57,54,57,60,57,57,57,58,57,56,57,57,57,55,57,58,57,57,57,56,57,58,57,57,57,57,57,57,57,57,57,56,57,58,57,57,57,57,57,57,57,57,57,56,57,57,57,57,57,57,57,57,57,57,57,58,57,57,57,57,57,58,57,57,57,57,57,58,57,57,57,57,57,59,57,56,57,57,57,57,57,57,57,57,57,57,57,57,57,57,57,57,57,57,57,57,57,57,57,57,57,57,57,57,57,57,57,57,57,57,57,57,57,57,57,57,57,57,57,57,57,57,57,57,57,57,57,57,57,57,57,57,57,57,57,57,57,57,57,57,57,57,57,57,57,57,57,57,tilt_right
57,57,56,49,56,62,57,57,56,54,56,60,57,57,57,56,56,59,57,57,57,56,56,58,57,57,57,57,57,58,57,57,57,59,57,56,57,57,57,59,58,56,57,57,57,60,58,55,57,57,57,62,58,55,57,57,57,61,57,56,57,57,57,60,57,57,57,57,57,58,57,57,57,57,57,56,57,57,57,57,57,54,57,58,57,57,57,54,57,58,57,57,57,55,57,57,57,57,57,55,57,58,57,57,57,56,57,57,57,57,57,56,57,57,57,57,57,57,57,57,57,57,57,56,57,58,57,57,57,57,57,57,57,57,57,56,57,58,57,57,57,57,57,56,57,57,57,57,57,58,57,57,57,57,57,57,57,57,57,57,57,57,57,57,57,57,57,57,57,57,57,57,57,57,57,57,57,57,57,57,tilt_right
57,57,56,20,60,67,57,57,56,48,57,60,57,57,57,54,57,59,57,57,57,56,57,58,57,57,57,57,57,60,57,57,57,64,56,55,57,57,57,61,57,56,57,57,57,60,57,56,57,57,57,60,57,56,57,57,57,61,57,56,57,57,57,60,57,57,57,57,57,60,57,56,57,57,57,57,57,57,57,57,57,57,57,56,57,57,57,55,57,57,57,57,57,57,57,57,57,57,57,55,57,57,57,57,57,58,57,56,57,57,57,55,57,58,57,57,57,57,57,56,57,57,57,54,57,59,57,57,57,56,57,56,57,57,57,53,57,59,57,57,57,56,57,57,57,57,57,55,57,59,57,57,57,57,57,57,57,57,57,57,57,57,57,57,57,57,57,57,57,57,57,58,57,57,57,57,57,57,57,58,tilt_right
57,57,56,27,60,65,57,57,56,46,58,60,57,57,56,56,57,58,57,57,57,57,57,57,57,57,57,57,57,59,57,57,57,64,56,56,57,57,57,62,56,55,57,57,57,59,57,57,57,57,57,59,57,56,57,57,57,60,57,57,57,57,57,61,57,56,57,57,57,59,57,57,57,57,57,59,57,57,57,57,57,57,57,57,57,57,57,56,57,56,57,57,57,56,57,57,57,57,57,55,57,58,57,57,57,56,57,57,57,57,57,56,57,57,57,57,57,56,57,57,57,57,57,55,57,58,57,57,57,56,57,57,57,57,57,56,57,57,57,57,57,56,57,57,57,57,57,56,57,57,57,57,57,58,57,57,57,57,57,57,57,57,57,57,57,57,57,57,57,57,57,57,57,57,57,57,57,57,57,57,tilt_right
57,57,56,22,59,65,57,57,56,50,57,59,57,57,57,54,56,58,57,57,57,56,56,57,57,57,57,56,57,60,57,57,57,64,57,55,57,57,57,60,57,56,57,57,57,59,58,57,57,57,57,60,57,57,57,57,57,60,57,57,57,57,57,60,57,56,57,57,57,59,57,57,57,57,57,59,57,56,57,57,57,57,57,57,57,57,57,56,57,57,57,57,57,55,57,57,57,57,57,56,57,57,57,57,57,56,57,57,57,57,57,56,57,57,57,57,57,56,57,57,57,57,57,56,57,57,57,57,57,57,57,57,57,57,57,56,57,58,57,57,57,57,57,57,57,57,57,56,57,58,57,57,57,57,57,56,57,57,57,56,57,58,57,57,57,57,57,57,57,57,57,57,57,57,57,57,57,57,57,57,tilt_right
57,57,56,24,60,64,57,57,56,53,57,58,57,57,57,56,56,57,57,57,57,57,56,57,57,57,57,57,57,59,57,57,57,64,57,55,57,57,57,60,57,56,57,57,57,59,57,56,57,57,57,59,57,57,57,57,57,60,57,56,57,57,57,59,57,57,57,57,57,58,57,57,57,57,57,58,57,57,57,57,57,57,57,57,57,57,57,56,57,57,57,57,57,56,57,57,57,57,57,56,57,57,57,57,57,56,57,57,57,57,57,56,57,57,57,57,57,57,57,57,57,57,57,56,57,57,57,57,57,57,57,57,57,57,57,56,57,58,57,57,57,57,57,57,57,57,57,56,57,58,57,57,57,57,57,57,57,57,57,56,57,58,57,57,57,57,57,57,57,57,57,57,57,57,57,57,57,57,57,57,tilt_right
57,57,56,31,59,62,57,57,56,53,57,58,57,57,57,56,56,57,57,57,57,57,57,57,57,57,57,57,57,59,57,57,57,62,56,55,57,57,57,59,57,57,57,57,57,59,57,57,57,57,57,59,57,57,57,57,57,59,57,57,57,57,57,59,57,57,57,57,57,59,57,57,57,57,57,59,57,57,57,57,57,57,57,57,57,57,57,57,57,57,57,57,57,56,57,57,57,57,57,55,57,57,57,57,57,56,57,57,57,57,57,56,57,57,57,57,57,56,57,57,57,57,57,56,57,57,57,57,57,56,57,57,57,57,57,56,57,57,57,57,57,57,57,57,57,57,57,57,57,57,57,57,57,57,57,57,57,57,57,57,57,57,57,57,57,57,57,57,57,57,57,57,57,57,57,57,57,57,57,57,tilt_right
57,57,56,39,58,60,57,57,57,51,56,58,57,57,57,56,56,57,57,57,57,57,57,57,57,57,57,57,57,58,57,57,57,61,57,56,57,57,57,60,57,56,57,57,57,58,58,57,57,57,57,58,57,57,57,57,57,59,57,57,57,57,57,59,57,57,57,57,57,59,57,57,57,57,57,58,57,57,57,57,57,57,57,57,57,57,57,57,57,57,57,57,57,57,57,57,57,57,57,56,57,57,57,57,57,56,57,57,57,57,57,57,57,57,57,57,57,57,57,57,57,57,57,56,57,57,57,57,57,56,57,57,57,57,57,57,57,57,57,57,57,56,57,57,57,57,57,57,57,57,57,57,57,56,57,57,57,57,57,57,57,57,57,57,57,56,57,57,57,57,57,57,57,57,57,57,57,56,57,58,tilt_right
57,57,56,24,59,64,57,57,56,49,57,59,57,57,57,55,57,57,57,57,57,57,57,57,57,57,57,57,57,59,57,57,57,64,57,55,57,57,57,61,57,56,57,57,57,60,57,56,57,57,57,60,57,57,57,57,57,59,57,57,57,57,57,59,57,56,57,57,57,58,57,57,57,57,57,57,57,57,57,57,57,57,57,57,57,57,57,57,57,57,57,57,57,57,57,57,57,57,57,56,57,57,57,57,57,56,57,57,57,57,57,55,57,57,57,57,57,56,57,57,57,57,57,55,57,58,57,57,57,56,57,57,57,57,57,56,57,57,57,57,57,57,57,57,57,57,57,57,57,57,57,57,57,57,57,57,57,57,57,57,57,57,57,57,57,57,57,57,57,57,57,57,57,57,57,57,57,57,57,57,tilt_right
57,57,56,36,58,61,57,57,56,50,57,58,57,57,57,56,56,57,57,57,57,56,57,57,57,57,57,57,57,58,57,57,57,61,57,56,57,57,57,60,57,56,57,57,57,58,57,57,57,57,57,60,57,57,57,57,57,60,57,56,57,57,57,60,57,57,57,57,57,59,57,57,57,57,57,59,57,56,57,57,57,57,57,57,57,57,57,56,57,57,57,57,57,56,57,57,57,57,57,56,57,57,57,57,57,55,57,58,57,57,57,55,57,57,57,57,57,56,57,57,57,57,57,55,57,57,57,57,57,56,57,57,57,57,57,56,57,58,57,57,57,57,57,57,57,57,57,56,57,58,57,57,57,58,57,57,57,57,57,57,57,57,57,57,57,57,57,57,57,57,57,57,57,57,57,57,57,57,57,57,tilt_right
57,57,56,39,58,61,57,57,56,49,57,59,57,57,57,53,57,58,57,57,57,56,57,57,57,57,57,57,57,58,57,57,57,61,57,56,57,57,57,60,57,56,57,57,57,60,57,56,57,57,57,59,57,57,57,57,57,60,57,56,57,57,57,59,57,57,57,57,57,59,57,57,57,57,57,58,57,57,57,57,57,58,57,57,57,57,57,57,57,57,57,57,57,56,57,57,57,57,57,56,57,57,57,57,57,56,57,57,57,57,57,55,57,57,57,57,57,56,57,57,57,57,57,56,57,57,57,57,57,56,57,57,57,57,57,56,57,57,57,57,57,56,57,57,57,57,57,56,57,58,57,57,57,57,57,57,57,57,57,57,57,57,57,57,57,57,57,57,57,57,57,58,57,57,57,57,57,57,57,57,tilt_right
57,57,56,26,59,64,57,57,56,47,58,59,57,57,57,56,57,57,57,57,57,57,57,57,57,57,57,57,57,59,57,57,57,63,56,55,57,57,57,61,57,56,57,57,57,58,57,57,57,57,57,59,57,57,57,57,57,59,57,57,57,57,57,59,57,57,57,57,57,59,57,57,57,57,57,58,57,57,57,57,57,57,57,57,57,57,57,57,57,57,57,57,57,57,57,57,57,57,57,56,57,57,57,57,57,56,57,57,57,57,57,57,57,57,57,57,57,56,57,57,57,57,57,56,57,57,57,57,57,56,57,58,57,57,57,57,57,57,57,57,57,57,57,57,57,57,57,57,57,57,57,57,57,57,57,57,57,57,57,56,57,57,57,57,57,57,57,57,57,57,57,56,57,57,57,57,57,57,57,57,tilt_right
57,57,56,34,59,62,57,57,56,45,58,60,57,57,57,55,57,57,57,57,57,56,56,57,57,57,57,56,57,58,57,57,57,61,57,57,57,57,57,62,57,55,57,57,57,59,57,57,57,57,57,59,58,57,57,57,57,59,57,57,57,57,57,59,57,57,57,57,57,58,57,57,57,57,57,58,57,57,57,57,57,57,57,57,57,57,57,57,57,57,57,57,57,57,57,57,57,57,57,57,57,57,57,57,57,57,57,57,57,57,57,57,57,57,57,57,57,57,57,57,57,57,57,57,57,57,57,57,57,56,57,57,57,57,57,57,57,57,57,57,57,56,57,57,57,57,57,56,57,57,57,57,57,56,57,58,57,57,57,56,57,57,57,57,57,56,57,58,57,57,57,57,57,57,57,57,57,57,57,58,tilt_right
57,57,56,38,58,62,57,57,56,47,58,59,57,57,57,55,57,58,57,57,57,57,57,57,57,57,57,57,57,58,57,57,57,61,57,56,57,57,57,61,57,56,57,57,57,59,57,57,57,57,57,59,57,56,57,57,57,60,57,57,57,57,57,59,57,57,57,57,57,59,57,57,57,57,57,58,57,56,57,57,57,57,57,57,57,57,57,57,57,57,57,57,57,56,57,57,57,57,57,56,57,57,57,57,57,56,57,58,57,57,57,56,57,57,57,57,57,55,57,58,57,57,57,56,57,58,57,57,57,56,57,57,57,57,57,56,57,58,57,57,57,57,57,57,57,57,57,56,57,57,57,57,57,57,57,57,57,57,57,57,57,57,57,57,57,57,57,57,57,57,57,57,57,58,57,57,57,57,57,57,tilt_right
57,57,56,36,58,62,57,57,56,51,57,58,57,57,57,56,57,57,57,57,57,57,57,57,57,57,57,57,57,58,57,57,57,61,57,56,57,57,57,60,57,56,57,57,57,59,57,57,57,57,57,59,57,57,57,57,57,60,57,57,57,57,57,59,57,57,57,57,57,59,57,57,57,57,57,58,57,57,57,57,57,56,57,57,57,57,57,56,57,57,57,57,57,56,57,57,57,57,57,57,57,57,57,57,57,55,57,58,57,57,57,56,57,57,57,57,57,56,57,58,57,57,57,56,57,57,57,57,57,56,57,58,57,57,57,57,57,57,57,57,57,57,57,57,57,57,57,56,57,57,57,57,57,57,57,57,57,57,57,57,57,57,57,57,57,57,57,57,57,57,57,56,57,58,57,57,57,58,57,56,tilt_right
57,57,56,40,58,61,57,57,56,47,58,59,57,57,57,55,57,57,57,57,57,56,57,57,57,57,57,57,57,58,57,57,57,60,57,57,57,57,57,61,57,55,57,57,57,59,57,57,57,57,57,59,57,57,57,57,57,59,57,57,57,57,57,59,57,57,57,57,57,58,57,57,57,57,57,58,57,57,57,57,57,58,57,57,57,57,57,56,57,57,57,57,57,57,57,57,57,57,57,57,57,57,57,57,57,57,57,57,57,57,57,56,57,58,57,57,57,57,57,57,57,57,57,55,57,58,57,57,57,56,57,57,57,57,57,56,57,57,57,57,57,55,57,57,57,57,57,57,57,57,57,57,57,56,57,58,57,57,57,58,57,57,57,57,57,57,57,58,57,57,57,57,57,56,57,57,57,57,57,58,tilt_right
57,57,56,25,60,65,57,57,56,49,57,59,57,57,57,56,57,57,57,57,57,56,57,57,57,57,57,57,57,59,57,57,57,63,57,55,57,57,57,60,57,56,57,57,57,58,57,57,57,57,57,59,57,57,57,57,57,59,57,57,57,57,57,59,57,57,57,57,57,58,57,57,57,57,57,58,57,57,57,57,57,57,57,57,57,57,57,57,57,57,57,57,57,57,57,57,57,57,57,57,57,57,57,57,57,57,57,57,57,57,57,57,57,57,57,57,57,57,57,57,57,57,57,57,57,57,57,57,57,57,57,57,57,57,57,57,57,57,57,57,57,56,57,57,57,57,57,57,57,57,57,57,57,56,57,58,57,57,57,56,57,57,57,57,57,56,57,58,57,57,57,56,57,57,57,57,57,57,57,57,tilt_right
57,57,56,33,58,63,57,57,56,47,57,59,57,57,57,52,57,58,57,57,57,56,57,57,57,57,57,56,57,59,57,57,57,61,57,56,57,57,57,61,57,56,57,57,57,60,57,56,57,57,57,59,58,57,57,57,57,59,57,57,57,57,57,59,57,57,57,57,57,59,57,57,57,57,57,59,57,57,57,57,57,58,57,57,57,57,57,57,57,57,57,57,57,57,57,57,57,57,57,57,57,57,57,57,57,57,57,57,57,57,57,56,57,57,57,57,57,57,57,57,57,57,57,56,57,57,57,57,57,56,57,57,57,57,57,56,57,57,57,57,57,56,57,57,57,57,57,56,57,57,57,57,57,56,57,57,57,57,57,56,57,57,57,57,57,57,57,57,57,57,57,56,57,58,57,57,57,57,57,57,tilt_right
57,57,56,35,58,62,57,57,56,50,57,59,57,57,57,56,56,57,57,57,57,56,57,57,57,57,57,57,57,58,57,57,57,61,57,56,57,57,57,60,57,56,57,57,57,58,58,57,57,57,57,59,57,57,57,57,57,59,57,57,57,57,57,59,57,57,57,57,57,58,57,57,57,57,57,58,57,57,57,57,57,57,57,57,57,57,57,57,57,57,57,57,57,56,57,57,57,57,57,57,57,57,57,57,57,57,57,57,57,57,57,56,57,57,57,57,57,56,57,57,57,57,57,56,57,57,57,57,57,56,57,57,57,57,57,56,57,57,57,57,57,57,57,57,57,57,57,57,57,57,57,57,57,57,57,57,57,57,57,56,57,57,57,57,57,57,57,57,57,57,57,56,57,57,57,57,57,57,57,57,tilt_right
57,57,56,28,59,64,57,57,56,45,58,59,57,57,57,55,56,57,57,57,57,56,57,57,57,57,57,57,57,59,57,57,57,63,57,56,57,57,57,62,57,55,57,57,57,58,57,57,57,57,57,59,57,57,57,57,57,59,57,57,57,57,57,59,57,57,57,57,57,59,57,57,57,57,57,58,57,57,57,57,57,58,57,57,57,57,57,58,57,57,57,57,57,57,57,57,57,57,57,57,57,57,57,57,57,56,57,57,57,57,57,56,57,57,57,57,57,56,57,57,57,57,57,56,57,57,57,57,57,56,57,57,57,57,57,57,57,57,57,57,57,57,57,57,57,57,57,57,57,57,57,57,57,56,57,57,57,57,57,56,57,57,57,57,57,56,57,57,57,57,57,56,57,57,57,57,57,57,57,57,tilt_right
57,57,56,28,59,65,57,57,56,43,58,60,57,57,57,54,56,58,57,57,57,56,56,57,57,57,57,57,57,59,57,57,57,63,56,56,57,57,57,63,57,55,57,57,57,59,57,56,57,57,57,59,58,57,57,57,57,58,57,57,57,57,57,58,57,57,57,57,57,58,57,57,57,57,57,58,57,57,57,57,57,58,57,57,57,57,57,58,57,57,57,57,57,57,57,57,57,57,57,57,57,57,57,57,57,57,57,57,57,57,57,57,57,57,57,57,57,57,57,57,57,57,57,57,57,57,57,57,57,57,57,57,57,57,57,56,57,57,57,57,57,56,57,57,57,57,57,57,57,57,57,57,57,56,57,57,57,57,57,56,57,57,57,57,57,56,57,57,57,57,57,56,57,56,57,57,57,56,57,58,tilt_right
57,57,56,32,58,63,57,57,56,46,56,59,57,57,57,56,56,57,57,57,57,56,56,57,57,57,57,57,57,59,57,57,57,62,57,56,57,57,57,61,57,56,57,57,57,58,57,57,57,57,57,59,58,57,57,57,57,59,57,57,57,57,57,59,57,57,57,57,57,58,57,57,57,57,57,58,57,57,57,57,57,57,57,57,57,57,57,57,57,57,57,57,57,57,57,57,57,57,57,57,57,57,57,57,57,57,57,57,57,57,57,57,57,57,57,57,57,56,57,57,57,57,57,56,57,57,57,57,57,56,57,57,57,57,57,56,57,57,57,57,57,56,57,57,57,57,57,56,57,57,57,57,57,56,57,57,57,57,57,57,57,57,57,57,57,57,57,57,57,57,57,57,57,57,57,57,57,57,57,57,tilt_right
57,57,56,24,59,66,57,57,56,49,57,59,57,57,57,56,56,57,57,57,57,57,56,57,57,57,57,57,57,60,57,57,57,64,56,55,57,57,57,61,57,56,57,57,57,58,57,57,57,57,57,59,57,57,57,57,57,59,57,57,57,57,57,59,57,57,57,57,57,59,57,57,57,57,57,58,57,57,57,57,57,57,57,57,57,57,57,57,57,57,57,57,57,57,57,57,57,57,57,56,57,57,57,57,57,56,57,57,57,57,57,56,57,57,57,57,57,55,57,57,57,57,57,55,57,58,57,57,57,56,57,57,57,57,57,56,57,57,57,57,57,57,57,57,57,57,57,57,57,57,57,57,57,57,57,57,57,57,57,57,57,57,57,57,57,57,57,57,57,57,57,57,57,57,57,57,57,57,57,57,tilt_right
57,57,56,15,60,68,57,57,56,49,57,59,57,57,57,57,57,57,57,57,57,57,56,57,57,57,57,57,57,61,57,57,57,66,56,54,57,57,57,61,57,56,57,57,57,58,57,56,57,57,57,58,58,57,57,57,57,59,57,57,57,57,57,59,57,57,57,57,57,59,57,57,57,57,57,59,57,57,57,57,57,58,57,57,57,57,57,58,57,57,57,57,57,57,57,57,57,57,57,57,57,57,57,57,57,56,57,57,57,57,57,56,57,57,57,57,57,56,57,57,57,57,57,56,57,57,57,57,57,56,57,57,57,57,57,56,57,57,57,57,57,56,57,57,57,57,57,57,57,57,57,57,57,57,57,57,57,57,57,57,57,57,57,57,57,57,57,57,57,57,57,57,57,57,57,57,57,57,57,57,tilt_right
57,56,56,28,59,63,57,57,57,53,56,57,57,57,57,55,56,57,57,57,57,56,56,57,57,57,57,57,57,59,57,57,57,63,57,55,57,57,57,59,58,57,57,57,57,59,58,57,57,57,57,59,58,57,57,57,57,59,57,57,57,57,57,59,57,57,57,57,57,59,57,57,57,57,57,58,57,57,57,57,57,57,57,57,57,57,57,56,57,57,57,57,57,56,57,57,57,57,57,56,57,57,57,57,57,55,57,57,57,57,57,55,57,57,57,57,57,56,57,57,57,57,57,56,57,57,57,57,57,57,57,57,57,57,57,57,57,57,57,57,57,57,57,57,57,57,57,57,57,57,57,57,57,57,57,57,57,57,57,57,57,57,57,57,57,57,57,57,57,57,57,57,57,57,57,57,57,57,57,58,tilt_right
57,57,56,27,59,64,57,57,56,54,56,58,57,57,57,55,55,57,57,57,57,57,56,57,57,57,57,57,57,59,57,57,57,63,57,55,57,57,57,59,57,56,57,57,57,60,58,57,57,57,57,59,58,57,57,57,57,60,57,56,57,57,57,59,57,57,57,57,57,59,57,57,57,57,57,58,57,57,57,57,57,57,57,56,57,57,57,56,57,57,57,57,57,56,57,57,57,57,57,57,57,57,57,57,57,56,57,57,57,57,57,55,57,57,57,57,57,55,57,58,57,57,57,56,57,57,57,57,57,56,57,57,57,57,57,56,57,57,57,57,57,57,57,57,57,57,57,56,57,57,57,57,57,56,57,57,57,57,57,56,57,58,57,57,57,57,57,57,57,57,57,57,57,58,57,57,57,57,57,57,tilt_right
57,57,56,35,58,63,57,57,56,45,57,60,57,57,56,56,56,57,57,57,57,56,56,57,57,57,57,57,57,58,57,57,57,61,57,56,57,57,57,62,57,55,57,57,57,58,57,56,57,57,57,59,58,57,57,57,57,59,57,57,57,57,57,59,57,57,57,57,57,59,57,57,57,57,57,58,57,57,57,57,57,57,57,57,57,57,57,57,57,57,57,57,57,56,57,57,57,57,57,56,57,57,57,57,57,56,57,57,57,57,57,56,57,57,57,57,57,56,57,57,57,57,57,57,57,57,57,57,57,56,57,57,57,57,57,57,57,57,57,57,57,57,57,57,57,57,57,56,57,57,57,57,57,56,57,58,57,57,57,57,57,57,57,57,57,56,57,57,57,57,57,57,57,58,57,57,57,58,57,57,tilt_right
57,57,56,27,59,65,57,57,56,48,57,59,57,57,57,56,56,57,57,57,57,56,56,57,57,57,57,57,56,59,57,57,57,63,56,55,57,57,57,60,57,56,57,57,57,58,57,56,57,57,57,58,58,57,57,57,57,58,58,57,57,57,57,59,57,57,57,57,57,59,57,57,57,57,57,58,57,57,57,57,57,59,57,57,57,57,57,58,57,57,57,57,57,57,57,57,57,57,57,57,57,57,57,57,57,57,57,57,57,57,57,57,57,57,57,57,57,57,57,57,57,57,57,57,57,57,57,57,57,55,57,57,57,57,57,56,57,57,57,57,57,56,57,57,57,57,57,55,57,57,57,57,57,56,57,58,57,57,57,57,57,57,57,57,57,56,57,57,57,57,57,57,57,58,57,57,57,58,57,57,tilt_right
57,57,56,31,59,63,57,57,56,47,58,59,57,57,57,56,57,57,57,57,57,56,57,57,57,57,57,57,57,59,57,57,57,62,57,56,57,57,57,61,57,56,57,57,57,58,57,56,57,57,57,58,57,57,57,57,57,59,57,56,57,57,57,58,57,57,57,57,57,58,57,57,57,57,57,59,57,57,57,57,57,58,57,56,57,57,57,57,57,57,57,57,57,58,57,57,57,57,57,57,57,57,57,57,57,56,57,57,57,57,57,56,57,57,57,57,57,56,57,57,57,57,57,56,57,57,57,57,57,56,57,57,57,57,57,56,57,57,57,57,57,55,57,58,57,57,57,56,57,57,57,57,57,56,57,58,57,57,57,57,57,57,57,57,57,57,57,57,57,57,57,57,57,57,57,57,57,57,57,57,tilt_right
57,57,56,31,58,63,57,57,56,45,57,59,57,57,57,56,57,57,57,57,57,56,57,57,57,57,57,57,57,59,57,57,57,62,57,56,57,57,57,62,57,55,57,57,57,58,57,57,57,57,57,59,57,57,57,57,57,58,57,57,57,57,57,59,57,57,57,57,57,59,57,57,57,57,57,58,57,57,57,57,57,58,57,57,57,57,57,57,57,57,57,57,57,57,57,57,57,57,57,57,57,58,57,57,57,57,57,57,57,57,57,57,57,57,57,57,57,56,57,57,57,57,57,56,57,57,57,57,57,56,57,57,57,57,57,55,57,57,57,57,57,56,57,58,57,57,57,56,57,57,57,57,57,57,57,57,57,57,57,56,57,57,57,57,57,57,57,57,57,57,57,57,57,57,57,57,57,57,57,57,tilt_right
57,57,56,31,59,63,57,57,56,49,57,59,57,57,57,56,57,57,57,57,57,57,57,57,57,57,57,57,57,59,57,57,57,62,56,56,57,57,57,60,57,56,57,57,57,58,57,57,57,57,57,58,57,57,57,57,57,58,57,57,57,57,57,59,57,57,57,57,57,58,57,57,57,57,57,58,57,57,57,57,57,58,57,57,57,57,57,58,57,57,57,57,57,58,57,57,57,57,57,58,57,57,57,57,57,57,57,57,57,57,57,57,57,57,57,57,57,56,57,56,57,57,57,56,57,57,57,57,57,55,57,57,57,57,57,55,57,57,57,57,57,56,57,58,57,57,57,56,57,57,57,57,57,56,57,58,57,57,57,57,57,57,57,57,57,57,57,57,57,57,57,57,57,57,57,57,57,57,57,57,tilt_right
57,57,56,27,59,64,57,57,57,52,56,58,57,57,57,55,56,57,57,57,57,56,56,57,57,57,57,57,57,59,57,57,57,63,57,55,57,57,57,59,57,56,57,57,57,58,58,57,57,57,57,58,58,57,57,57,57,59,57,57,57,57,57,59,57,57,57,57,57,59,57,57,57,57,57,58,57,57,57,57,57,59,57,57,57,57,57,58,57,56,57,57,57,57,57,57,57,57,57,57,57,57,57,57,57,56,57,57,57,57,57,55,57,57,57,57,57,55,57,58,57,57,57,56,57,57,57,57,57,56,57,58,57,57,57,56,57,57,57,57,57,56,57,57,57,57,57,57,57,57,57,57,57,57,57,57,57,57,57,57,57,57,57,57,57,57,57,57,57,57,57,57,57,57,57,57,57,57,57,57,tilt_right
57,57,56,48,56,58,57,57,56,55,56,57,57,57,57,57,56,57,57,57,57,57,57,57,57,57,57,57,57,57,57,57,57,59,57,57,57,57,57,59,57,57,57,57,57,58,58,57,57,57,57,59,57,57,57,57,57,59,57,57,57,57,57,59,57,57,57,57,57,57,57,57,57,57,57,58,57,56,57,57,57,58,57,57,57,57,57,57,57,56,57,57,57,56,57,57,57,57,57,56,57,57,57,57,57,56,57,57,57,57,57,55,57,57,57,57,57,56,57,57,57,57,57,56,57,57,57,57,57,56,57,57,57,57,57,56,57,57,57,57,57,57,57,57,57,57,57,56,57,57,57,57,57,57,57,57,57,57,57,57,57,57,57,57,57,57,57,57,57,57,57,57,57,57,57,57,57,57,57,57,tilt_right
57,57,56,30,59,64,57,57,56,46,57,59,57,57,56,55,57,57,57,57,57,56,57,57,57,57,57,57,57,59,57,57,57,62,56,56,57,57,57,62,57,55,57,57,57,58,57,57,57,57,57,58,57,57,57,57,57,58,57,57,57,57,57,59,57,57,57,57,57,58,57,57,57,57,57,58,57,57,57,57,57,58,57,57,57,57,57,59,57,57,57,57,57,59,57,57,57,57,57,58,57,57,57,57,57,57,57,57,57,57,57,56,57,57,57,57,57,55,57,57,57,57,57,55,57,57,57,57,57,54,57,58,57,57,57,56,57,57,57,57,57,56,57,57,57,57,57,57,57,57,57,57,57,57,57,57,57,57,57,57,57,56,57,57,57,57,57,57,57,57,57,57,57,57,57,57,57,57,57,57,tilt_right
57,57,56,32,58,64,57,57,56,46,57,59,57,57,57,55,56,57,57,57,57,56,57,57,57,57,57,57,57,59,57,57,57,62,57,56,57,57,57,61,57,56,57,57,57,59,57,57,57,57,57,59,57,57,57,57,57,58,57,57,57,57,57,59,57,57,57,57,57,59,57,57,57,57,57,58,57,57,57,57,57,58,57,57,57,57,57,57,57,57,57,57,57,57,57,57,57,57,57,57,57,57,57,57,57,57,57,57,57,57,57,57,57,57,57,57,57,57,57,57,57,57,57,56,57,57,57,57,57,56,57,57,57,57,57,56,57,57,57,57,57,56,57,57,57,57,57,56,57,57,57,57,57,57,57,57,57,57,57,57,57,57,57,57,57,57,57,57,57,57,57,57,57,57,57,57,57,57,57,57,tilt_right
57,57,56,40,58,62,57,57,56,52,57,59,57,57,57,56,57,57,57,57,57,56,57,57,57,57,57,57,57,58,57,57,57,60,57,56,57,57,57,59,57,56,57,57,57,58,57,57,57,57,57,58,57,57,57,57,57,58,57,57,57,57,57,58,57,57,57,57,57,58,57,57,57,57,57,58,57,57,57,57,57,58,57,57,57,57,57,58,57,57,57,57,57,57,57,57,57,57,57,57,57,57,57,57,57,57,57,57,57,57,57,57,57,57,57,57,57,57,57,57,57,57,57,57,57,57,57,57,57,57,57,57,57,57,57,57,57,57,57,57,57,57,57,57,57,57,57,56,57,57,57,57,57,56,57,57,57,57,57,56,57,57,57,57,57,56,57,57,57,57,57,56,57,57,57,57,57,57,57,57,tilt_right
57,57,56,33,58,62,57,57,57,54,56,58,57,57,57,55,56,57,57,57,57,56,57,57,57,57,57,56,57,59,57,57,57,62,57,55,57,57,57,58,57,57,57,57,57,58,58,57,57,57,57,58,58,57,57,57,57,58,57,57,57,57,57,59,57,57,57,57,57,58,57,57,57,57,57,58,57,57,57,57,57,58,57,57,57,57,57,57,57,57,57,57,57,57,57,57,57,57,57,57,57,57,57,57,57,57,57,57,57,57,57,57,57,57,57,57,57,57,57,57,57,57,57,56,57,57,57,57,57,56,57,57,57,57,57,56,57,57,57,57,57,56,57,57,57,57,57,56,57,57,57,57,57,57,57,57,57,57,57,56,57,57,57,57,57,56,57,57,57,57,57,57,57,57,57,57,57,57,57,57,tilt_right
57,57,56,41,58,62,57,57,56,53,57,58,57,57,57,56,56,57,57,57,57,57,57,57,57,57,57,57,57,59,57,57,57,61,57,56,57,57,57,59,57,56,57,57,57,59,57,57,57,57,57,59,57,57,57,57,57,58,57,57,57,57,57,59,57,57,57,57,57,58,57,57,57,57,57,58,57,57,57,57,57,57,57,57,57,57,57,57,57,57,57,57,57,56,57,57,57,57,57,56,57,57,57,57,57,57,57,57,57,57,57,56,57,57,57,57,57,56,57,57,57,57,57,57,57,57,57,57,57,56,57,57,57,57,57,56,57,57,57,57,57,57,57,57,57,57,57,57,57,57,57,57,57,56,57,57,57,57,57,57,57,57,57,57,57,56,57,57,57,57,57,57,57,57,57,57,57,56,57,57,tilt_right
57,57,56,39,58,62,57,57,56,50,57,59,57,57,57,55,57,57,57,57,57,57,56,57,57,57,57,57,57,58,57,57,57,60,56,56,57,57,57,60,57,56,57,57,57,58,57,57,57,57,57,58,58,57,57,57,57,58,58,57,57,57,57,59,57,57,57,57,57,59,57,57,57,57,57,59,57,57,57,57,57,59,57,57,57,57,57,58,57,57,57,57,57,57,57,57,57,57,57,56,57,57,57,57,57,56,57,57,57,57,57,56,57,57,57,57,57,57,57,57,57,57,57,56,57,57,57,57,57,56,57,57,57,57,57,56,57,57,57,57,57,56,57,57,57,57,57,56,57,57,57,57,57,56,57,57,57,57,57,56,57,57,57,57,57,57,57,57,57,57,57,57,57,57,57,57,57,57,57,57,tilt_right
57,57,56,42,58,61,57,57,56,52,57,58,57,57,57,56,56,57,57,57,57,57,57,57,57,57,57,57,57,58,57,57,57,60,57,56,57,57,57,60,57,56,57,57,57,59,57,57,57,57,57,59,57,57,57,57,57,59,57,57,57,57,57,59,57,57,57,57,57,59,57,57,57,57,57,58,57,57,57,57,57,58,57,57,57,57,57,57,57,57,57,57,57,57,57,56,57,57,57,56,57,57,57,57,57,57,57,57,57,57,57,56,57,57,57,57,57,55,57,57,57,57,57,56,57,57,57,57,57,56,57,57,57,57,57,55,57,57,57,57,57,56,57,58,57,57,57,56,57,57,57,57,57,56,57,57,57,57,57,56,57,58,57,57,57,57,57,57,57,57,57,57,57,57,57,57,57,57,57,57,tilt_right
57,57,56,31,59,64,57,57,56,47,58,59,57,57,57,56,57,58,57,57,57,56,57,57,57,57,57,57,57,59,57,57,57,62,56,56,57,57,57,61,57,56,57,57,57,58,57,57,57,57,57,59,57,57,57,57,57,59,57,57,57,57,57,61,57,56,57,57,57,60,57,57,57,57,57,59,57,56,57,57,57,57,57,57,57,57,57,57,57,56,57,57,57,54,57,58,57,57,57,55,57,58,57,57,57,56,57,57,57,57,57,56,57,57,57,57,57,56,57,57,57,57,57,56,57,57,57,57,57,56,57,57,57,57,57,56,57,57,57,57,57,57,57,57,57,57,57,57,57,57,57,57,57,57,57,57,57,57,57,57,57,57,57,57,57,57,57,57,57,57,57,57,57,57,57,57,57,57,57,57,tilt_right
57,57,56,32,59,63,57,57,56,49,57,58,57,57,57,56,57,57,57,57,57,56,57,57,57,57,57,57,57,59,57,57,57,62,57,56,57,57,57,60,57,56,57,57,57,58,57,57,57,57,57,59,57,57,57,57,57,60,57,57,57,57,57,59,57,57,57,57,57,60,57,57,57,57,57,59,57,57,57,57,57,58,57,57,57,57,57,57,57,57,57,57,57,56,57,57,57,57,57,56,57,57,57,57,57,56,57,57,57,57,57,55,57,57,57,57,57,56,57,58,57,57,57,55,57,57,57,57,57,56,57,57,57,57,57,56,57,58,57,57,57,57,57,57,57,57,57,56,57,58,57,57,57,57,57,57,57,57,57,57,57,57,57,57,57,57,57,57,57,57,57,57,57,57,57,57,57,57,57,57,tilt_right
57,57,56,23,59,66,57,57,56,47,57,59,57,57,57,57,57,57,57,57,57,57,57,57,57,57,57,57,57,60,57,57,57,64,56,55,57,57,57,62,57,56,57,57,57,58,57,56,57,57,57,59,57,57,57,57,57,59,57,57,57,57,57,59,57,56,57,57,57,58,57,57,57,57,57,57,57,57,57,57,57,58,57,57,57,57,57,57,57,57,57,57,57,56,57,57,57,57,57,56,57,58,57,57,57,56,57,57,57,57,57,56,57,57,57,57,57,57,57,57,57,57,57,57,57,57,57,57,57,57,57,58,57,57,57,58,57,56,57,57,57,57,57,57,57,57,57,56,57,57,57,57,57,57,57,57,57,57,57,56,57,57,57,57,57,57,57,57,57,57,57,57,57,57,57,57,57,57,57,57,tilt_right
57,57,56,37,58,62,57,57,56,49,57,59,57,57,57,56,56,57,57,57,57,56,57,57,57,57,57,57,57,58,57,57,57,61,57,56,57,57,57,61,57,56,57,57,57,58,57,57,57,57,57,59,58,57,57,57,57,59,57,57,57,57,57,59,57,57,57,57,57,59,57,57,57,57,57,58,57,57,57,57,57,58,57,57,57,57,57,57,57,57,57,57,57,57,57,57,57,57,57,57,57,57,57,57,57,56,57,57,57,57,57,55,57,57,57,57,57,56,57,57,57,57,57,55,57,57,57,57,57,55,57,58,57,57,57,56,57,58,57,57,57,57,57,57,57,57,57,56,57,58,57,57,57,57,57,57,57,57,57,57,57,57,57,57,57,57,57,57,57,57,57,57,57,57,57,57,57,57,57,57,tilt_right
57,57,56,23,60,67,57,57,56,46,58,60,57,57,57,56,56,57,57,57,57,56,56,57,57,57,57,57,57,60,57,57,57,64,56,55,57,57,57,62,57,55,57,57,57,59,57,56,57,57,57,60,58,57,57,57,57,60,57,57,57,57,57,59,57,57,57,57,57,59,57,57,57,57,57,59,57,57,57,57,57,58,57,56,57,57,57,55,57,57,57,57,57,56,57,57,57,57,57,55,57,57,57,57,57,54,57,57,57,57,57,55,57,58,57,57,57,55,57,57,57,57,57,56,57,57,57,57,57,56,57,58,57,57,57,57,57,57,57,57,57,56,57,57,57,57,57,57,57,57,57,57,57,57,57,57,57,57,57,57,57,57,57,57,57,57,57,57,57,57,57,57,57,57,57,57,57,57,57,57,tilt_right
57,57,56,31,59,64,57,57,56,45,58,60,57,57,57,56,56,57,57,57,57,56,56,57,57,57,57,57,57,59,57,57,57,62,56,56,57,57,57,62,57,55,57,57,57,58,57,57,57,57,57,58,58,57,57,57,57,59,57,57,57,57,57,59,57,57,57,57,57,59,57,57,57,57,57,59,57,57,57,57,57,59,57,57,57,57,57,58,57,57,57,57,57,58,57,57,57,57,57,57,57,57,57,57,57,57,57,57,57,57,57,57,57,57,57,57,57,56,57,57,57,57,57,56,57,57,57,57,57,55,57,57,57,57,57,56,57,57,57,57,57,56,57,57,57,57,57,56,57,57,57,57,57,56,57,57,57,57,57,56,57,57,57,57,57,57,57,57,57,57,57,57,57,57,57,57,57,57,57,58,tilt_right
57,57,56,30,59,65,57,57,56,45,58,60,57,57,57,55,56,58,57,57,57,56,56,57,57,57,57,56,56,59,57,57,57,62,56,56,57,57,57,61,56,55,57,57,57,58,57,56,57,57,57,58,58,57,57,57,57,58,58,57,57,57,57,58,58,57,57,57,57,59,58,57,57,57,57,59,58,57,57,57,57,59,57,57,57,57,57,59,57,57,57,57,57,59,57,57,57,57,57,58,57,57,57,57,57,57,57,57,57,57,57,57,57,57,57,57,57,57,57,57,57,57,57,56,57,57,57,57,57,56,57,57,57,57,57,55,57,57,57,57,57,56,57,57,57,57,57,55,57,57,57,57,57,56,57,57,57,57,57,56,57,58,57,57,57,56,57,57,57,57,57,57,57,57,57,57,57,57,57,57,tilt_right
57,57,56,35,58,62,57,57,56,49,57,58,57,57,57,56,56,57,57,57,57,57,56,57,57,57,57,57,57,58,57,57,57,62,57,56,57,57,57,62,57,56,57,57,57,60,57,57,57,57,57,60,57,57,57,57,57,60,57,57,57,57,57,59,57,56,57,57,57,58,57,57,57,57,57,58,57,57,57,57,57,56,57,57,57,57,57,56,57,57,57,57,57,56,57,57,57,57,57,55,57,57,57,57,57,55,57,58,57,57,57,56,57,57,57,57,57,56,57,57,57,57,57,56,57,57,57,57,57,56,57,57,57,57,57,57,57,57,57,57,57,57,57,57,57,57,57,57,57,57,57,57,57,57,57,57,57,57,57,57,57,57,57,57,57,57,57,57,57,57,57,57,57,57,57,57,57,57,57,57,tilt_right
57,57,56,25,60,66,57,57,56,40,59,61,57,57,57,56,57,58,57,57,57,56,57,57,57,57,57,57,57,59,57,57,57,63,56,56,57,57,57,64,56,54,57,57,57,57,57,57,57,57,57,59,57,57,57,57,57,59,57,57,57,57,57,62,57,56,57,57,57,60,57,57,57,57,57,58,57,57,57,57,57,57,57,57,57,57,57,56,57,56,57,57,57,54,57,57,57,57,57,56,57,58,57,57,57,56,57,57,57,57,57,56,57,58,57,57,57,56,57,57,57,57,57,56,57,57,57,57,57,55,57,58,57,57,57,56,57,57,57,57,57,57,57,57,57,57,57,57,57,57,57,57,57,57,57,57,57,57,57,57,57,57,57,57,57,57,57,57,57,57,57,57,57,57,57,57,57,57,57,57,tilt_right
57,57,56,19,61,66,57,57,56,49,57,59,57,57,57,56,57,58,57,57,57,57,56,57,57,57,57,57,57,60,57,57,57,65,56,55,57,57,57,61,57,56,57,57,57,59,57,56,57,57,57,60,57,57,57,57,57,60,57,56,57,57,57,59,57,56,57,57,57,59,57,57,57,57,57,58,57,57,57,57,57,55,57,57,57,57,57,55,57,57,57,57,57,55,57,58,57,57,57,56,57,57,57,57,57,55,57,58,57,57,57,57,57,57,57,57,57,57,57,57,57,57,57,56,57,57,57,57,57,58,57,57,57,57,57,58,57,57,57,57,57,55,57,57,57,57,57,56,57,58,57,57,57,57,57,57,57,57,57,55,57,57,57,57,57,56,57,58,57,57,57,58,57,57,57,57,57,57,57,57,tilt_right
57,57,56,27,59,65,57,57,56,44,58,60,57,57,57,54,57,58,57,57,57,56,57,57,57,57,57,57,57,59,57,57,57,63,56,56,57,57,57,62,56,55,57,57,57,59,57,56,57,57,57,59,57,56,57,57,57,59,57,57,57,57,57,59,57,57,57,57,57,59,57,57,57,57,57,58,57,57,57,57,57,57,57,57,57,57,57,57,57,57,57,57,57,57,57,57,57,57,57,57,57,57,57,57,57,57,57,57,57,57,57,57,57,57,57,57,57,57,57,57,57,57,57,56,57,57,57,57,57,56,57,57,57,57,57,56,57,57,57,57,57,56,57,57,57,57,57,56,57,57,57,57,57,56,57,58,57,57,57,57,57,57,57,57,57,57,57,58,57,57,57,57,57,57,57,57,57,57,57,58,tilt_right
57,57,56,32,59,63,57,57,56,43,58,60,57,57,56,55,57,58,57,57,57,56,57,57,57,57,57,57,57,58,57,57,57,62,57,57,57,57,57,63,57,55,57,57,57,59,57,56,57,57,57,59,57,56,57,57,57,59,57,57,57,57,57,59,57,56,57,57,57,59,57,56,57,57,57,59,57,57,57,57,57,58,57,56,57,57,57,57,57,57,57,57,57,57,57,57,57,57,57,56,57,57,57,57,57,56,57,58,57,57,57,56,57,58,57,57,57,55,57,57,57,57,57,56,57,58,57,57,57,56,57,57,57,57,57,56,57,57,57,57,57,56,57,58,57,57,57,57,57,57,57,57,57,56,57,58,57,57,57,57,57,57,57,57,57,57,57,57,57,57,57,57,57,57,57,57,57,57,57,57,tilt_right
57,57,56,31,59,64,57,57,56,46,58,60,57,57,57,56,57,57,57,57,57,56,57,57,57,57,57,57,57,59,57,57,57,62,57,56,57,57,57,62,57,55,57,57,57,59,57,57,57,57,57,59,57,56,57,57,57,60,57,57,57,57,57,59,57,56,57,57,57,59,57,57,57,57,57,58,57,57,57,57,57,57,57,57,57,57,57,56,57,57,57,57,57,56,57,57,57,57,57,55,57,57,57,57,57,55,57,57,57,57,57,55,57,58,57,57,57,56,57,57,57,57,57,56,57,58,57,57,57,57,57,57,57,57,57,57,57,57,57,57,57,57,57,57,57,57,57,57,57,57,57,57,57,57,57,57,57,57,57,57,57,57,57,57,57,57,57,57,57,57,57,57,57,57,57,57,57,57,57,57,tilt_right
57,57,56,11,61,70,57,57,57,46,58,59,57,57,57,56,57,58,57,57,57,57,56,57,57,57,57,57,57,61,57,57,57,66,56,54,57,57,57,62,57,56,57,57,57,58,57,56,57,57,57,59,57,57,57,57,57,60,57,56,57,57,57,60,57,57,57,57,57,59,57,57,57,57,57,59,57,57,57,57,57,58,57,56,57,57,57,56,57,57,57,57,57,55,57,58,57,57,57,55,57,57,57,57,57,55,57,57,57,57,57,54,57,57,57,57,57,55,57,58,57,57,57,56,57,58,57,57,57,56,57,57,57,57,57,56,57,57,57,57,57,57,57,57,57,57,57,57,57,57,57,57,57,57,57,57,57,57,57,57,57,57,57,57,57,57,57,57,57,57,57,57,57,57,57,57,57,57,57,57,tilt_right
57,57,56,18,61,68,57,57,56,41,59,61,57,57,57,57,57,57,57,57,57,57,57,57,57,57,57,57,57,60,57,57,57,65,56,55,57,57,57,64,56,54,57,57,57,58,57,56,57,57,57,59,57,57,57,57,57,59,57,56,57,57,57,59,57,57,57,57,57,58,57,57,57,57,57,58,57,57,57,57,57,57,57,57,57,57,57,56,57,57,57,57,57,56,57,57,57,57,57,56,57,57,57,57,57,55,57,58,57,57,57,55,57,57,57,57,57,56,57,58,57,57,57,56,57,57,57,57,57,57,57,57,57,57,57,57,57,57,57,57,57,57,57,57,57,57,57,57,57,57,57,57,57,57,57,57,57,57,57,57,57,57,57,57,57,57,57,57,57,57,57,57,57,57,57,57,57,57,57,57,tilt_right
57,56,56,16,61,67,57,57,57,45,58,59,57,57,57,56,57,57,57,57,57,57,57,57,57,57,57,57,57,60,57,57,57,65,56,54,57,57,57,62,57,55,57,57,57,58,57,56,57,57,57,58,57,57,57,57,57,58,57,57,57,57,57,57,57,57,57,57,57,57,57,57,57,57,57,57,57,57,57,57,57,57,57,57,57,57,57,57,57,57,57,57,57,58,57,57,57,57,57,60,57,56,57,57,57,61,57,56,57,57,57,59,57,56,57,57,57,59,57,56,57,57,57,58,57,57,57,57,57,55,57,56,57,57,57,53,57,58,57,57,57,54,57,58,57,57,57,55,57,57,57,57,57,55,57,58,57,57,57,56,57,58,57,57,57,57,57,57,57,57,57,57,57,57,57,57,57,57,57,57,tilt_right
57,57,56,20,61,68,57,57,56,41,59,60,57,57,57,56,57,57,57,57,57,56,57,57,57,57,57,57,57,60,57,57,57,66,56,55,57,57,57,67,56,54,57,57,57,61,57,56,57,57,57,61,57,56,57,57,57,59,57,56,57,57,57,58,57,56,57,57,57,55,57,57,57,57,57,54,57,58,57,57,57,55,57,57,57,57,57,55,57,58,57,57,57,55,57,58,57,57,57,55,57,58,57,57,57,56,57,57,57,57,57,56,57,57,57,57,57,57,57,57,57,57,57,57,57,57,57,57,57,57,57,57,57,57,57,57,57,57,57,57,57,57,57,57,57,57,57,57,57,57,57,57,57,57,57,57,57,57,57,57,57,57,57,57,57,57,57,57,57,57,57,57,57,57,57,57,57,57,57,57,tilt_right
57,57,56,20,61,67,57,57,56,43,59,60,57,57,57,57,57,58,57,57,57,57,57,57,57,57,57,57,57,60,57,57,57,65,56,56,57,57,57,64,56,55,57,57,57,60,57,56,57,57,57,60,57,56,57,57,57,60,57,56,57,57,57,60,57,56,57,57,57,58,57,57,57,57,57,56,57,57,57,57,57,55,57,57,57,57,57,55,57,58,57,57,57,55,57,57,57,57,57,55,57,58,57,57,57,56,57,57,57,57,57,56,57,57,57,57,57,56,57,57,57,57,57,56,57,57,57,57,57,56,57,58,57,57,57,57,57,57,57,57,57,56,57,57,57,57,57,56,57,57,57,57,57,57,57,57,57,57,57,57,57,57,57,57,57,57,57,57,57,57,57,57,57,57,57,57,57,57,57,57,tilt_right
57,57,56,30,60,65,57,57,56,39,59,61,57,57,57,55,57,58,57,57,57,56,57,57,57,57,57,57,57,58,57,57,57,62,56,57,57,57,57,65,56,54,57,57,57,60,57,56,57,57,57,60,57,57,57,57,57,60,57,56,57,57,57,60,57,57,57,57,57,59,57,57,57,57,57,58,57,57,57,57,57,57,57,57,57,57,57,56,57,57,57,57,57,56,57,57,57,57,57,56,57,57,57,57,57,56,57,57,57,57,57,56,57,57,57,57,57,56,57,57,57,57,57,56,57,57,57,57,57,56,57,57,57,57,57,56,57,57,57,57,57,56,57,57,57,57,57,56,57,57,57,57,57,56,57,57,57,57,57,57,57,57,57,57,57,57,57,57,57,57,57,57,57,57,57,57,57,57,57,57,tilt_right
57,57,56,32,59,64,57,57,56,46,58,60,57,57,57,56,57,57,57,57,57,56,57,57,57,57,57,57,57,59,57,57,57,62,56,56,57,57,57,61,57,55,57,57,57,59,57,57,57,57,57,60,57,57,57,57,57,60,57,56,57,57,57,59,57,57,57,57,57,60,57,57,57,57,57,58,57,57,57,57,57,57,57,56,57,57,57,55,57,58,57,57,57,56,57,57,57,57,57,55,57,57,57,57,57,55,57,57,57,57,57,55,57,57,57,57,57,56,57,57,57,57,57,56,57,57,57,57,57,56,57,58,57,57,57,57,57,57,57,57,57,57,57,57,57,57,57,57,57,57,57,57,57,57,57,57,57,57,57,57,57,57,57,57,57,57,57,57,57,57,57,57,57,57,57,57,57,57,57,57,tilt_right
57,58,57,56,66,63,57,58,57,60,63,61,57,57,57,60,60,62,57,57,57,59,58,61,57,57,57,59,57,60,57,57,57,60,54,57,57,56,57,58,53,56,57,57,57,57,53,54,57,57,57,57,53,53,57,57,57,56,55,52,57,57,57,54,56,53,57,57,57,54,58,53,57,57,57,53,60,55,57,58,57,54,61,56,57,58,57,55,62,58,57,58,57,57,62,58,57,57,57,58,60,61,57,57,57,59,58,59,57,57,57,59,56,60,57,57,57,58,55,59,57,57,57,57,54,58,57,57,57,57,55,57,57,57,57,57,56,56,57,57,57,57,57,57,57,57,57,57,57,57,57,57,57,57,57,57,57,57,57,57,57,57,57,57,57,57,57,57,57,57,57,57,57,57,57,57,57,57,57,57,clockwise
57,57,56,58,64,54,57,57,57,57,63,57,57,57,57,57,62,58,57,57,57,58,61,59,57,57,57,59,59,59,57,57,57,59,57,60,57,57,57,60,55,59,57,57,57,60,53,58,57,57,57,59,52,56,57,57,57,57,52,55,57,57,57,57,53,53,57,57,57,56,54,52,57,57,57,55,56,53,57,57,57,54,58,54,57,57,57,54,59,55,57,57,57,54,61,56,57,57,57,54,61,57,57,57,57,55,62,58,57,57,57,56,61,59,57,57,57,58,60,59,57,57,57,58,58,60,57,57,57,59,56,60,57,57,57,58,55,59,57,57,57,58,54,58,57,57,57,57,55,58,57,57,57,57,56,57,57,57,57,57,56,56,57,57,57,57,57,57,57,57,57,57,57,57,57,57,57,57,57,57,clockwise
58,56,58,71,54,66,58,56,57,63,53,60,57,57,57,61,53,57,57,57,57,60,54,56,57,57,57,59,55,57,57,57,57,55,56,53,57,57,57,54,57,53,57,57,57,53,59,55,57,57,57,53,60,56,57,57,57,53,61,56,57,57,57,55,61,58,57,57,57,57,61,59,57,57,57,58,60,59,57,57,57,58,58,59,57,57,57,59,57,59,57,57,57,59,56,59,57,57,57,58,55,58,57,57,57,58,55,58,57,57,57,57,55,57,57,57,57,57,56,56,57,57,57,57,56,57,57,57,57,57,57,57,57,57,57,57,57,57,57,57,57,57,57,57,57,57,57,57,57,57,57,57,57,57,57,57,57,57,57,57,57,57,57,57,57,57,57,57,57,57,57,57,57,57,57,57,57,57,57,57,clockwise
57,58,57,55,69,57,57,58,57,58,65,58,57,57,57,59,62,59,57,57,57,59,60,59,57,57,57,59,58,59,57,57,57,60,54,58,57,57,57,60,53,58,57,57,57,59,52,57,57,57,57,58,52,55,57,57,57,57,53,54,57,57,57,56,55,53,57,57,57,55,56,53,57,57,57,53,58,54,57,57,57,53,59,54,57,57,57,53,60,56,57,57,57,53,61,56,57,58,57,54,61,58,57,58,57,56,61,59,57,57,57,58,60,60,57,57,57,59,59,60,57,57,57,60,57,59,57,57,57,59,56,59,57,57,57,59,55,59,57,57,57,57,55,58,57,57,57,57,55,56,57,57,57,57,56,57,57,57,57,57,56,56,57,57,57,57,57,57,57,57,57,57,57,57,57,57,57,57,57,57,clockwise
56,58,57,54,69,58,57,58,57,56,65,59,57,58,57,59,62,59,57,57,57,61,59,60,57,57,57,60,58,59,57,57,57,61,54,59,57,57,57,61,52,57,57,56,57,59,52,56,57,56,57,57,52,54,57,57,57,56,54,52,57,57,57,54,55,52,57,57,57,53,57,52,57,57,57,53,58,54,57,57,57,53,59,55,57,57,57,53,60,56,57,58,57,55,61,58,57,57,57,56,61,59,57,57,57,56,61,60,57,57,57,58,60,60,57,57,57,59,58,60,57,57,57,59,56,60,57,57,57,59,55,58,57,57,57,58,55,58,57,57,57,57,55,57,57,57,57,57,56,56,57,57,57,57,57,56,57,57,57,57,57,57,57,57,57,57,57,57,57,57,57,57,57,57,57,57,57,57,57,57,clockwise
56,58,56,57,61,54,57,58,57,55,62,58,57,58,57,59,62,59,57,57,57,59,61,60,57,57,57,60,59,59,57,57,57,60,57,61,58,57,57,60,54,58,57,56,57,58,52,57,57,56,57,58,51,54,57,56,57,56,52,53,57,57,57,55,54,51,57,57,57,55,56,51,57,57,57,54,57,53,57,57,57,53,59,55,57,58,57,52,61,57,57,58,57,54,62,58,57,58,57,55,62,59,57,57,57,57,61,60,57,57,57,59,59,60,57,57,57,59,57,59,57,57,57,60,56,58,57,57,57,58,55,59,57,57,57,59,54,58,57,57,57,57,55,57,57,57,57,57,56,56,57,57,57,56,56,57,57,57,57,57,57,56,57,57,57,57,57,57,57,57,57,57,57,57,57,57,57,57,57,57,clockwise
56,57,56,58,62,53,57,57,57,56,62,56,57,57,57,56,62,58,57,57,57,58,61,59,57,57,57,60,59,58,57,57,57,60,57,60,57,57,57,61,54,59,57,57,57,61,52,58,57,56,57,59,51,56,57,56,57,57,52,54,57,57,57,56,53,53,57,57,57,55,55,52,57,57,57,53,57,53,57,57,57,53,59,54,57,57,57,53,60,55,57,58,57,53,61,56,57,58,57,54,62,58,57,58,57,57,61,60,57,57,57,58,60,60,57,57,57,59,58,61,57,57,57,59,56,60,57,57,57,59,55,59,57,57,57,58,55,58,57,57,57,58,55,57,57,57,57,57,56,57,57,57,57,57,56,56,57,57,57,56,56,57,57,57,57,57,57,56,57,57,57,57,57,57,57,57,57,57,57,57,clockwise
56,57,56,55,66,55,57,57,57,55,64,57,57,58,57,57,63,59,57,57,57,58,61,59,57,57,57,59,59,58,57,57,57,59,55,60,57,57,57,61,53,59,57,57,57,60,52,58,57,56,57,59,51,55,57,57,57,58,53,55,57,57,57,57,54,53,57,57,57,56,56,53,57,57,57,54,58,53,57,57,57,53,59,54,57,57,57,52,60,56,57,57,57,53,61,56,57,57,57,54,61,59,57,57,57,56,61,58,57,57,57,57,60,60,57,57,57,58,59,59,57,57,57,58,57,60,57,57,57,59,56,58,57,57,57,59,55,58,57,57,57,58,55,57,57,57,57,57,55,58,57,57,57,58,56,56,57,57,57,57,56,56,57,57,57,57,57,57,57,57,57,57,57,57,57,57,57,57,57,57,clockwise
56,58,56,55,66,57,57,58,57,58,64,58,57,57,57,57,61,60,57,57,57,60,59,60,57,57,57,60,58,59,57,57,57,61,55,58,57,57,57,60,53,59,57,56,57,60,52,56,57,56,57,57,53,56,57,57,57,56,53,53,57,57,57,55,55,53,56,57,57,53,57,53,57,57,57,52,59,54,57,57,57,53,59,54,57,58,57,53,60,55,57,58,57,54,61,57,57,58,57,56,61,59,57,57,57,57,61,58,57,57,57,58,60,61,57,57,57,59,59,61,57,57,57,59,56,59,57,57,57,58,55,59,57,57,57,59,54,58,57,57,57,58,54,57,57,57,57,57,55,56,57,57,57,57,56,57,57,57,57,57,57,56,57,57,57,57,57,57,57,57,57,57,57,57,57,57,57,57,57,57,clockwise
57,58,57,57,67,59,57,58,57,58,63,60,57,57,57,58,60,60,57,57,57,60,59,59,57,57,57,59,58,59,57,57,57,60,54,58,57,57,57,59,53,58,57,56,57,58,53,55,57,57,57,57,53,55,57,57,57,56,54,54,57,57,57,55,56,53,57,57,57,54,57,54,57,57,57,54,59,54,57,57,57,54,59,56,57,57,57,54,60,56,57,57,57,54,60,57,57,57,57,56,60,59,57,57,57,57,59,58,57,57,57,58,59,59,57,57,57,58,58,59,57,57,57,58,57,59,57,57,57,58,56,59,57,57,57,59,56,57,57,57,57,57,56,58,57,57,57,58,56,57,57,57,57,57,56,57,57,57,57,57,57,56,57,57,57,57,57,57,57,57,57,57,57,57,57,57,57,57,57,57,clockwise
57,58,57,60,72,58,57,58,57,59,64,61,57,58,57,62,60,61,57,57,57,61,58,61,57,57,57,61,57,58,57,57,57,60,53,59,57,57,57,59,52,56,57,56,57,56,53,56,57,57,57,56,54,53,57,57,57,54,55,53,57,57,57,54,56,53,57,57,57,54,58,54,57,57,57,53,59,54,57,57,57,54,60,55,57,58,57,54,60,57,57,58,57,55,61,56,57,57,57,55,61,60,57,57,57,58,60,59,57,57,57,57,59,61,57,57,57,59,57,59,57,57,57,59,56,59,57,57,57,59,55,58,57,57,57,58,55,58,57,57,57,58,55,57,57,57,57,57,56,57,57,57,57,57,56,57,57,57,57,57,57,57,57,57,57,57,57,57,57,57,57,57,57,57,57,57,57,57,57,57,clockwise
57,58,57,60,65,59,57,57,57,59,62,60,57,57,57,59,61,60,57,57,57,59,59,59,57,57,57,59,57,59,57,57,57,59,55,59,57,57,57,59,53,57,57,57,57,59,52,56,57,56,57,58,53,55,57,57,57,56,54,53,57,57,57,56,56,52,57,57,57,53,58,53,57,57,57,53,59,53,57,57,57,53,61,55,57,58,57,54,61,55,57,58,57,55,61,58,57,57,57,56,61,60,57,57,57,57,59,61,57,57,57,59,57,60,57,57,57,58,56,58,57,57,57,58,55,60,57,57,57,60,54,58,57,57,57,59,55,57,57,57,57,57,56,57,57,57,57,57,56,56,57,57,57,57,57,57,57,57,57,56,57,57,57,57,57,57,57,57,57,57,57,57,57,57,57,57,57,57,57,57,clockwise
57,58,57,55,72,61,57,58,57,60,65,60,57,57,57,61,61,61,57,57,57,61,59,60,57,57,57,60,57,59,57,57,57,61,53,58,57,56,57,59,52,57,57,56,57,57,52,55,57,57,57,56,53,53,57,57,57,55,54,53,57,57,57,54,56,52,57,57,57,54,58,53,57,57,57,53,60,55,57,57,57,54,60,56,57,58,57,54,61,57,57,57,57,56,61,58,57,57,57,56,60,60,57,57,57,58,59,59,57,57,57,58,58,60,57,57,57,59,57,58,57,57,57,58,56,58,57,57,57,58,55,58,57,57,57,58,55,57,57,57,57,58,55,57,57,57,57,57,56,56,57,57,57,57,56,57,57,57,57,57,57,57,57,57,57,57,57,57,57,57,57,57,57,57,57,57,57,57,57,57,clockwise
57,58,56,53,70,60,57,58,57,59,66,60,57,57,57,59,62,60,57,57,57,60,60,60,57,57,57,60,57,60,57,57,57,61,53,58,57,57,57,60,51,57,57,56,57,58,51,55,57,57,57,57,52,53,57,57,57,55,54,52,57,57,57,54,56,52,57,57,57,53,58,54,57,57,57,53,60,55,57,57,57,53,61,57,57,57,57,55,61,58,57,57,57,55,60,59,57,57,57,56,59,59,57,57,57,57,59,59,57,57,57,58,57,59,57,57,57,59,57,59,57,57,57,58,56,57,57,57,57,58,56,58,57,57,57,57,56,57,57,57,57,57,56,57,57,57,57,57,57,57,57,57,57,57,57,57,57,57,57,57,57,57,57,57,57,57,57,57,57,57,57,57,57,57,57,57,57,57,57,57,clockwise
57,57,56,55,67,56,57,57,57,57,65,57,57,57,57,57,63,59,57,57,57,58,61,59,57,57,57,60,59,59,57,57,57,61,56,59,57,57,57,60,53,59,57,57,57,61,52,57,57,56,57,59,51,56,57,56,57,56,52,53,57,57,57,55,54,52,57,57,57,55,56,52,57,57,57,53,58,52,57,57,57,53,59,54,57,57,57,53,60,56,57,57,57,53,60,57,57,57,57,54,60,59,57,57,57,56,60,59,57,57,57,57,59,60,57,57,57,59,58,59,57,57,57,59,57,59,57,57,57,59,56,58,57,57,57,59,56,58,57,57,57,58,55,58,57,57,57,57,56,57,57,57,57,57,56,57,57,57,57,57,57,57,57,57,57,57,57,57,57,57,57,57,57,57,57,57,57,57,57,57,clockwise
57,58,57,55,76,63,57,58,57,61,66,62,57,57,57,61,61,62,57,57,57,61,58,61,57,57,57,60,56,60,57,57,57,61,51,57,57,57,57,59,51,55,57,56,57,57,52,54,57,57,57,56,54,52,57,57,57,55,56,52,57,57,57,55,57,52,57,57,57,54,58,54,57,57,57,55,59,55,57,57,57,53,60,57,57,57,57,55,60,58,57,57,57,54,61,59,57,57,57,56,60,59,57,57,57,56,60,61,57,57,57,58,58,59,57,57,57,58,57,59,57,57,57,59,56,58,57,57,57,58,55,58,57,57,57,58,55,58,57,57,57,58,55,57,57,57,57,57,56,57,57,57,57,57,56,57,57,57,57,57,57,57,57,57,57,57,57,57,57,57,57,57,57,57,57,57,57,57,57,57,clockwise
57,58,57,60,73,63,57,58,57,60,65,62,57,57,57,61,61,61,57,57,57,61,58,60,57,57,57,60,57,59,57,57,57,59,53,58,57,57,57,59,52,56,57,57,57,57,52,54,57,57,57,56,53,54,57,57,57,56,55,53,57,57,57,55,57,53,57,57,57,54,59,53,57,57,57,53,59,55,57,57,57,54,59,55,57,57,57,54,60,57,57,57,57,55,60,58,57,57,57,56,59,59,57,57,57,57,59,59,57,57,57,57,58,60,57,57,57,58,57,59,57,57,57,58,56,58,57,57,57,58,55,58,57,57,57,59,55,57,57,57,57,58,56,57,57,57,57,58,56,57,57,57,57,57,56,57,57,57,57,57,57,57,57,57,57,57,57,57,57,57,57,57,57,57,57,57,57,57,57,57,clockwise
57,58,57,57,75,57,57,58,57,58,65,60,57,58,57,62,61,61,57,57,57,61,58,61,57,57,57,60,57,59,57,57,57,60,53,59,57,56,57,59,52,57,57,56,57,56,52,56,57,57,57,56,53,53,57,57,57,56,54,52,57,57,57,56,56,51,57,57,57,54,58,52,57,57,57,53,59,54,57,57,57,53,60,56,57,57,57,53,61,56,57,57,57,53,61,59,57,57,57,56,60,60,57,57,57,57,59,61,57,57,57,59,58,59,57,57,57,59,56,60,57,57,57,59,56,58,57,57,57,59,55,59,57,57,57,58,56,57,57,57,57,57,56,57,57,57,57,57,56,57,57,57,57,57,57,57,57,57,57,57,57,57,57,57,57,57,57,57,57,57,57,57,57,57,57,57,57,57,57,57,clockwise
57,58,56,54,74,60,57,58,57,57,66,61,57,58,57,60,62,62,57,57,57,61,58,61,57,57,57,60,57,59,57,57,57,61,52,58,57,57,57,61,51,57,57,56,57,59,51,54,57,57,57,56,53,52,57,57,57,55,55,51,57,57,57,55,57,51,57,57,57,52,59,53,57,57,57,53,60,54,57,57,57,53,61,57,57,57,57,54,61,58,57,57,57,55,61,61,57,57,57,57,60,59,57,57,57,57,59,61,57,57,57,58,58,59,57,57,57,58,57,59,57,57,57,58,55,58,57,57,57,58,55,57,57,57,57,58,55,57,57,57,57,58,55,57,57,57,57,57,56,57,57,57,57,57,57,57,57,57,57,57,57,57,57,57,57,57,57,57,57,57,57,57,57,57,57,57,57,57,57,57,clockwise
57,58,56,57,72,54,57,58,57,58,68,58,57,58,57,60,63,59,57,57,57,61,60,61,57,57,57,60,58,59,57,57,57,61,53,60,57,57,57,60,51,58,57,57,57,59,51,57,57,56,57,57,52,54,57,57,57,56,54,53,57,57,57,55,55,52,57,57,57,54,57,52,57,57,57,55,58,53,57,57,57,53,59,55,57,57,57,54,59,55,57,57,57,54,59,57,57,57,57,55,59,57,57,57,57,55,59,60,57,57,57,57,59,58,57,57,57,57,59,60,57,57,57,57,59,59,57,57,57,58,58,59,57,57,57,58,57,58,57,57,57,58,57,58,57,57,57,58,56,57,57,57,57,58,56,57,57,57,57,58,56,57,57,57,57,57,56,57,57,57,57,57,56,57,57,57,57,57,57,57,clockwise
56,57,56,55,66,52,57,58,57,58,66,56,57,58,57,59,64,59,57,57,57,60,62,60,57,57,57,61,59,59,58,57,57,61,55,60,58,57,57,61,52,60,57,56,57,60,50,57,57,56,57,58,50,55,57,56,57,56,52,52,57,57,57,55,54,50,56,57,57,53,56,51,56,57,57,53,59,52,57,57,57,52,60,54,57,57,57,52,61,55,57,57,57,53,61,59,57,57,57,55,61,59,57,57,57,56,60,60,57,57,57,58,58,60,57,57,57,59,57,60,57,57,57,59,55,59,57,57,57,59,55,59,57,57,57,58,55,58,57,57,57,57,56,57,57,57,57,57,56,57,57,57,57,57,57,57,57,57,57,57,57,57,57,57,57,57,57,57,57,57,57,57,57,57,57,57,57,57,57,57,clockwise
56,57,56,59,65,55,57,57,57,57,65,57,57,57,57,58,64,59,57,57,57,59,62,60,57,57,57,61,60,59,57,57,57,60,56,60,57,57,57,60,53,59,57,57,57,60,51,57,57,56,57,59,51,55,57,56,57,56,52,53,57,57,57,56,54,52,57,57,57,55,55,52,57,57,57,54,57,52,57,57,57,53,59,54,57,57,57,53,60,55,57,57,57,53,60,57,57,57,57,53,61,58,57,57,57,54,60,59,57,57,57,56,59,59,57,57,57,57,58,59,57,57,57,57,57,60,57,57,57,58,57,59,57,57,57,59,56,58,57,57,57,59,56,58,57,57,57,59,56,58,57,57,57,58,56,57,57,57,57,57,56,57,57,57,57,57,56,57,57,57,57,57,56,57,57,57,57,57,57,57,clockwise
56,58,56,55,70,55,57,58,57,58,67,57,57,58,57,58,64,60,57,57,57,62,62,60,57,57,57,61,59,60,58,57,57,62,54,60,58,57,57,61,51,60,57,56,57,60,49,56,57,56,57,56,50,55,57,57,57,56,53,51,56,57,57,54,56,50,56,57,57,53,58,50,56,57,57,52,60,53,57,57,57,53,60,54,57,57,57,52,60,57,57,57,57,54,60,58,57,57,57,54,60,60,57,57,57,57,59,60,57,57,57,57,59,61,57,57,57,59,58,58,57,57,57,59,57,60,57,57,57,58,56,58,57,57,57,58,55,58,57,57,57,58,55,57,57,57,57,57,55,57,57,57,57,57,56,57,57,57,57,57,57,57,57,57,57,57,57,57,57,57,57,57,57,57,57,57,57,58,57,57,clockwise
56,58,56,53,73,58,57,58,57,59,67,59,57,58,57,59,63,61,57,57,57,61,61,61,57,57,57,61,59,59,58,57,57,61,54,59,57,57,57,60,51,58,57,56,57,59,50,55,57,56,57,57,50,53,57,57,57,55,52,53,57,57,57,56,55,52,56,57,57,54,57,52,57,57,57,54,59,53,57,57,57,54,60,54,57,57,57,53,60,56,57,57,57,53,61,57,57,57,57,53,61,59,57,57,57,55,61,59,57,57,57,55,60,60,57,57,57,57,59,60,57,57,57,58,57,59,57,57,57,60,56,59,57,57,57,59,55,58,57,57,57,59,54,57,57,57,57,58,54,58,57,57,57,57,56,57,57,57,57,56,56,57,57,57,57,57,57,57,57,57,57,57,57,57,57,57,57,57,57,57,clockwise
56,57,56,56,63,55,57,57,57,58,64,56,57,57,57,58,64,59,57,57,57,59,62,60,57,57,57,60,60,59,58,57,57,61,57,59,58,57,57,60,54,60,57,57,57,60,51,57,57,56,57,59,50,54,57,56,57,57,51,53,57,57,57,56,53,53,57,57,57,55,55,52,57,57,57,54,58,53,57,57,57,53,59,54,57,57,57,53,60,55,57,57,57,53,60,57,57,57,57,54,60,58,57,57,57,54,60,59,57,57,57,56,60,59,57,57,57,57,59,60,57,57,57,58,58,59,57,57,57,58,57,59,57,57,57,59,56,58,57,57,57,59,55,59,57,57,57,59,55,57,57,57,57,57,55,58,57,57,57,58,56,56,57,57,57,57,56,58,57,57,57,57,57,57,57,57,57,57,57,57,clockwise
57,58,56,56,67,54,57,57,57,58,65,57,57,57,57,58,64,59,57,57,57,59,61,60,57,57,57,60,59,59,57,57,57,61,56,60,57,57,57,60,53,59,57,57,57,61,51,57,57,56,57,59,51,55,57,56,57,56,52,53,57,57,57,55,54,52,57,57,57,55,56,52,57,57,57,53,57,52,57,57,57,52,59,55,57,57,57,54,59,55,57,57,57,53,60,57,57,57,57,54,59,58,57,57,57,55,59,59,57,57,57,56,60,59,57,57,57,57,60,59,57,57,57,58,59,59,57,57,57,58,58,59,57,57,57,59,57,58,57,57,57,59,56,59,57,57,57,59,55,58,57,57,57,58,55,57,57,57,57,58,55,57,57,57,57,57,56,58,57,57,57,57,56,57,57,57,57,57,57,57,clockwise
56,58,56,51,72,56,57,58,57,59,66,58,57,58,57,60,63,60,57,57,57,61,60,60,57,57,57,61,58,60,57,57,57,62,54,59,57,57,57,60,52,59,57,56,57,59,51,56,57,56,57,57,52,54,57,57,57,56,53,52,57,57,57,55,55,51,57,57,57,54,57,52,57,57,57,53,59,53,57,57,57,53,60,55,57,57,57,52,60,57,57,57,57,54,60,57,57,57,57,54,60,59,57,57,57,56,59,59,57,57,57,57,59,60,57,57,57,59,59,59,57,57,57,59,58,59,57,57,57,59,56,59,57,57,57,59,56,58,57,57,57,58,55,58,57,57,57,58,55,57,57,57,57,57,56,58,57,57,57,57,56,57,57,57,57,57,57,57,57,57,57,57,57,57,57,57,57,57,57,57,clockwise
56,57,56,56,66,55,57,57,57,55,65,58,57,58,57,58,64,59,57,57,57,60,62,60,57,57,57,61,60,58,58,57,57,61,56,60,58,57,57,61,53,59,57,56,57,60,51,57,57,56,57,58,50,54,57,56,57,56,51,54,57,57,57,56,53,52,56,57,57,54,55,52,56,57,57,54,57,53,57,57,57,53,59,55,57,57,57,53,60,54,57,57,57,53,61,57,57,57,57,54,61,58,57,57,57,55,61,59,57,57,57,56,60,59,57,57,57,57,59,59,57,57,57,58,58,60,57,57,57,59,57,59,57,57,57,59,56,59,57,57,57,59,55,57,57,57,57,57,55,58,57,57,57,58,55,57,57,57,57,57,55,57,57,57,57,57,56,56,57,57,57,57,57,57,57,57,57,57,57,57,clockwise
57,58,57,55,73,54,57,58,57,59,67,59,57,57,57,58,62,61,57,57,57,59,60,61,57,57,57,60,58,58,57,57,57,61,53,60,57,57,57,60,52,58,57,57,57,59,52,55,57,56,57,58,52,54,57,57,57,56,53,53,57,57,57,55,55,52,57,57,57,55,56,53,57,57,57,54,58,53,57,57,57,55,59,54,57,57,57,54,60,55,57,57,57,53,61,57,57,57,57,54,60,59,57,57,57,54,60,59,57,57,57,55,59,60,57,57,57,57,59,60,57,57,57,58,58,59,57,57,57,59,57,59,57,57,57,59,56,58,57,57,57,59,56,57,57,57,57,58,55,57,57,57,57,58,55,56,57,57,57,57,56,57,57,57,57,57,56,57,57,57,57,57,57,57,57,57,57,57,57,57,clockwise
56,57,56,57,64,53,57,57,57,55,64,56,57,57,57,58,64,58,57,57,57,59,62,59,57,57,57,59,60,58,57,57,57,61,58,60,58,57,57,61,54,59,57,57,57,59,52,60,57,57,57,59,51,56,57,56,57,57,51,54,57,57,57,55,52,53,57,57,57,56,54,53,56,57,57,54,56,52,56,57,57,55,58,53,57,57,57,54,59,54,57,57,57,54,60,55,57,57,57,52,60,57,57,57,57,55,61,57,57,57,57,54,61,59,57,57,57,57,60,58,57,57,57,57,60,60,57,57,57,60,58,58,57,57,57,59,56,59,57,57,57,59,55,58,57,57,57,58,55,58,57,57,57,58,55,58,57,57,57,57,55,57,57,57,57,57,56,57,57,57,57,57,56,57,57,57,57,57,57,57,clockwise
57,58,57,59,69,61,57,58,57,61,63,62,57,57,57,62,60,61,57,57,57,61,58,60,57,57,57,61,57,59,57,57,57,61,53,57,57,56,57,59,52,56,57,56,57,57,52,53,57,57,57,56,53,52,57,57,57,54,55,52,57,57,57,53,57,52,57,57,57,53,59,54,57,57,57,53,59,54,57,57,57,52,60,57,57,57,57,54,61,58,57,57,57,54,61,59,57,57,57,55,60,59,57,57,57,57,59,60,57,57,57,59,58,60,57,57,57,59,56,60,57,57,57,60,54,59,57,57,57,59,54,58,57,57,57,58,55,57,57,57,57,57,56,56,57,57,57,57,56,57,57,57,57,57,57,57,57,57,57,57,57,57,57,57,57,57,57,57,57,57,57,57,57,57,57,57,57,57,57,57,clockwise
57,58,56,58,71,54,57,57,57,58,67,58,57,57,57,58,63,59,57,57,57,60,61,60,57,57,57,61,59,58,57,57,57,60,55,60,57,57,57,60,52,59,57,57,57,60,51,57,57,56,57,58,51,55,57,57,57,56,52,54,57,57,57,56,54,53,57,57,57,54,56,52,57,57,57,54,58,53,57,57,57,53,59,54,57,57,57,54,59,55,57,57,57,53,60,57,57,57,57,54,60,57,57,57,57,54,60,59,57,57,57,56,60,59,57,57,57,57,59,60,57,57,57,58,59,59,57,57,57,59,57,59,57,57,57,59,56,58,57,57,57,59,56,58,57,57,57,58,55,58,57,57,57,58,56,57,57,57,57,57,56,58,57,57,57,57,57,57,57,57,57,57,57,57,57,57,57,57,57,57,clockwise
56,57,56,59,65,52,57,57,57,58,66,56,57,57,57,57,65,58,57,57,57,59,63,59,57,57,57,59,60,58,58,57,57,60,57,60,57,57,57,59,53,60,57,57,57,59,50,58,57,57,57,59,50,57,57,57,57,57,51,54,57,57,57,56,53,53,57,57,57,56,55,53,57,57,57,56,57,53,57,57,57,53,58,54,57,57,57,55,59,54,57,57,57,53,59,56,57,57,57,55,60,56,57,57,57,54,60,58,57,57,57,56,60,58,57,57,57,56,59,59,57,57,57,58,59,59,57,57,57,58,58,59,57,57,57,59,57,58,57,57,57,59,56,58,57,57,57,58,55,58,57,57,57,57,55,57,57,57,57,57,56,57,57,57,57,57,56,57,57,57,57,57,57,57,57,57,57,57,57,57,clockwise
57,58,57,58,71,58,57,58,57,58,66,60,57,57,57,60,62,61,57,57,57,60,60,60,57,57,57,60,58,59,57,57,57,60,54,59,57,57,57,60,52,57,57,56,57,58,52,56,57,57,57,57,52,54,57,57,57,56,54,53,57,57,57,54,56,52,57,57,57,54,57,53,57,57,57,53,59,54,57,57,57,53,60,55,57,57,57,53,61,56,57,57,57,55,61,58,57,57,57,55,60,59,57,57,57,57,59,59,57,57,57,58,58,59,57,57,57,58,56,59,57,57,57,59,55,59,57,57,57,59,55,57,57,57,57,58,55,58,57,57,57,58,56,57,57,57,57,58,56,57,57,57,57,57,57,57,57,57,57,57,57,57,57,57,57,57,57,57,57,57,57,57,57,57,57,57,57,57,57,57,clockwise
57,58,57,56,70,58,57,58,57,59,65,60,57,57,57,60,62,61,57,57,57,60,60,60,57,57,57,60,58,59,57,57,57,60,55,59,57,57,57,59,53,58,57,56,57,58,52,56,57,57,57,57,52,54,57,57,57,56,53,53,57,57,57,55,55,53,57,57,57,55,56,53,57,57,57,55,57,54,57,57,57,55,58,55,57,57,57,55,59,56,57,57,57,55,59,56,57,57,57,55,60,58,57,57,57,56,60,58,57,57,57,56,59,59,57,57,57,57,58,59,57,57,57,57,58,59,57,57,57,58,57,59,57,57,57,57,57,59,57,57,57,58,56,58,57,57,57,58,56,58,57,57,57,58,56,57,57,57,57,57,57,57,57,57,57,57,57,57,57,57,57,57,57,57,57,57,57,57,57,57,clockwise
57,58,56,56,70,57,57,57,57,58,66,59,57,57,57,58,63,61,57,57,57,59,60,61,57,57,57,59,58,59,57,57,57,60,54,59,57,57,57,59,52,59,57,57,57,59,52,56,57,57,57,58,52,55,57,57,57,57,53,53,57,57,57,56,55,53,57,57,57,56,56,53,57,57,57,54,57,53,57,57,57,54,58,54,57,57,57,54,59,56,57,57,57,55,59,56,57,57,57,54,60,58,57,57,57,56,60,58,57,57,57,56,60,59,57,57,57,57,59,59,57,57,57,58,58,59,57,57,57,58,57,58,57,57,57,59,56,58,57,57,57,58,56,58,57,57,57,58,55,58,57,57,57,57,56,58,57,57,57,57,56,57,57,57,57,57,57,57,57,57,57,57,57,57,57,57,57,57,57,57,clockwise
57,58,56,57,76,59,57,58,57,58,69,60,57,57,57,60,64,61,57,57,57,59,60,61,57,57,57,59,58,59,57,57,57,60,52,59,57,57,57,60,51,57,57,57,57,58,50,55,57,57,57,58,52,54,57,57,57,57,54,53,57,57,57,56,55,53,57,57,57,56,57,53,57,57,57,54,58,55,57,57,57,54,58,55,57,57,57,54,59,57,57,57,57,55,59,56,57,57,57,54,59,58,57,57,57,56,60,57,57,57,57,56,60,59,57,57,57,56,60,59,57,57,57,58,59,59,57,57,57,58,58,59,57,57,57,59,57,59,57,57,57,59,56,59,57,57,57,59,55,57,57,57,57,57,55,58,57,57,57,57,55,57,57,57,57,57,56,57,57,57,57,57,57,57,57,57,57,57,57,57,clockwise
57,58,57,60,77,62,57,58,57,63,68,61,57,57,57,61,63,61,57,57,57,60,59,61,57,57,57,60,57,60,57,57,57,60,51,57,57,57,57,58,50,56,57,57,57,58,50,54,57,57,57,58,52,53,57,57,57,55,55,52,57,57,57,54,57,53,57,57,57,55,58,53,57,57,57,54,59,54,57,57,57,54,60,56,57,57,57,54,60,56,57,57,57,54,60,57,57,57,57,54,60,58,57,57,57,56,60,59,57,57,57,56,60,60,57,57,57,58,59,59,57,57,57,59,57,60,57,57,57,59,56,58,57,57,57,59,55,59,57,57,57,59,55,57,57,57,57,57,55,58,57,57,57,57,56,57,57,57,57,57,57,57,57,57,57,57,57,57,57,57,57,57,57,57,57,57,57,57,57,57,clockwise
57,58,57,60,78,62,57,57,57,60,67,62,57,57,57,60,61,61,57,57,57,60,58,61,57,57,57,60,56,59,57,57,57,60,51,58,57,57,57,59,50,56,57,57,57,58,52,54,57,57,57,56,54,53,57,57,57,55,55,53,57,57,57,54,57,53,57,57,57,54,58,53,57,57,57,53,59,55,57,57,57,55,59,55,57,57,57,55,60,57,57,57,57,55,60,57,57,57,57,55,61,58,57,57,57,56,60,59,57,57,57,57,59,60,57,57,57,58,57,60,57,57,57,59,56,59,57,57,57,59,55,59,57,57,57,59,55,58,57,57,57,58,56,57,57,57,57,57,56,57,57,57,57,57,57,57,57,57,57,57,57,57,57,57,57,57,57,57,57,57,57,57,57,57,57,57,57,57,57,57,clockwise
57,58,57,60,76,65,57,58,57,61,65,63,57,57,57,61,60,61,57,57,57,61,58,60,57,57,57,60,57,60,57,57,57,60,52,57,57,57,57,59,52,55,57,57,57,57,53,54,57,57,57,56,54,53,57,57,57,55,56,53,57,57,57,54,57,53,57,57,57,53,58,55,57,57,57,55,58,55,57,57,57,55,59,57,57,57,57,56,59,56,57,57,57,55,59,57,57,57,57,56,60,57,57,57,57,56,60,58,57,57,57,56,60,58,57,57,57,56,59,59,57,57,57,58,58,59,57,57,57,58,56,59,57,57,57,59,55,58,57,57,57,59,55,58,57,57,57,59,55,57,57,57,57,57,56,57,57,57,57,57,56,57,57,57,57,57,57,57,57,57,57,57,57,57,57,57,57,57,57,57,clockwise
57,58,57,59,80,62,57,58,57,61,67,62,57,57,57,61,62,61,57,57,57,60,59,60,57,57,57,60,57,59,57,57,57,60,51,57,57,57,57,59,51,55,57,57,57,57,51,54,57,57,57,56,53,53,57,57,57,55,55,53,57,57,57,54,56,53,57,57,57,55,57,54,57,57,57,54,58,55,57,57,57,55,59,56,57,57,57,54,60,57,57,57,57,54,60,57,57,57,57,54,61,58,57,57,57,56,61,59,57,57,57,57,60,60,57,57,57,57,58,60,57,57,57,59,57,60,57,57,57,59,56,59,57,57,57,59,55,59,57,57,57,58,54,58,57,57,57,58,55,56,57,57,57,57,56,56,57,57,57,57,56,56,57,57,57,57,57,57,57,57,57,57,57,57,57,57,57,57,57,57,clockwise
57,58,57,63,75,64,57,57,57,61,65,63,57,57,57,62,61,61,57,57,57,60,59,60,57,57,57,60,57,59,57,57,57,58,52,58,57,57,57,58,52,55,57,57,57,56,52,55,57,57,57,57,53,54,57,57,57,56,55,54,57,57,57,56,56,54,57,57,57,56,57,55,57,57,57,56,58,55,57,57,57,56,58,56,57,57,57,55,59,56,57,57,57,55,59,56,57,57,57,55,59,58,57,57,57,55,59,58,57,57,57,55,59,59,57,57,57,57,58,58,57,57,57,57,57,59,57,57,57,58,57,58,57,57,57,58,57,59,57,57,57,58,56,58,57,57,57,58,56,58,57,57,57,58,57,57,57,57,57,58,57,58,57,57,57,57,57,57,57,57,57,57,57,57,57,57,57,57,57,57,clockwise
57,57,56,53,66,55,57,57,57,55,65,57,57,57,57,56,65,59,57,57,57,58,63,60,57,57,57,59,61,59,57,57,57,61,58,60,57,57,57,60,54,60,57,57,57,61,51,57,57,57,57,59,50,56,57,57,57,58,51,54,57,57,57,56,52,53,57,57,57,56,54,53,57,57,57,56,56,53,57,57,57,54,57,54,57,57,57,54,58,54,57,57,57,54,59,56,57,57,57,54,60,56,57,57,57,54,60,59,57,57,57,56,60,58,57,57,57,56,60,59,57,57,57,58,59,59,57,57,57,57,59,59,57,57,57,58,58,59,57,57,57,58,57,58,57,57,57,58,56,58,57,57,57,58,55,58,57,57,57,58,55,57,57,57,57,57,55,57,57,57,57,57,56,57,57,57,57,57,56,57,clockwise
58,57,58,59,59,58,57,57,57,57,56,57,57,57,57,58,56,57,57,57,57,57,57,57,57,57,57,57,57,57,57,57,57,56,57,57,57,57,57,57,58,57,57,57,57,57,58,58,57,57,57,57,57,57,57,57,57,57,57,57,57,57,57,57,57,57,57,57,57,57,57,57,57,57,57,57,57,57,57,57,57,57,57,57,57,57,57,57,57,57,57,57,57,57,57,57,57,57,57,57,57,57,57,57,57,57,57,57,57,57,57,57,57,57,57,57,57,57,57,57,57,57,57,57,57,57,57,57,57,57,57,57,57,57,57,57,57,57,57,57,57,57,57,57,57,57,57,57,57,57,57,57,57,57,57,57,57,57,57,57,57,57,57,57,57,57,57,57,57,57,57,57,57,57,57,57,57,57,57,57,clockwise
57,58,58,62,69,64,57,57,57,61,62,62,57,57,57,61,59,60,57,57,57,61,57,59,57,57,57,60,56,59,57,57,57,59,53,56,57,57,57,58,53,55,57,57,57,57,53,54,57,57,57,56,54,53,57,57,57,55,56,53,57,57,57,55,57,54,57,57,57,54,58,54,57,57,57,53,59,55,57,57,57,53,60,56,57,57,57,54,60,57,57,57,57,54,60,58,57,57,57,55,60,59,57,57,57,56,59,60,57,57,57,57,59,60,57,57,57,59,58,60,57,57,57,59,58,60,57,57,57,60,57,59,57,57,57,59,56,58,57,57,57,59,55,57,57,57,57,57,55,57,57,57,57,57,55,56,57,57,57,56,56,57,57,57,57,57,56,56,57,57,57,57,57,57,57,57,57,57,57,57,clockwise
56,57,56,59,62,53,57,57,57,55,64,56,57,57,57,57,64,57,57,57,57,58,62,58,57,57,57,59,61,58,57,57,57,59,59,59,57,57,57,61,56,59,57,57,57,60,53,59,57,57,57,59,52,58,57,57,57,58,52,56,57,57,57,56,52,55,57,57,57,56,53,54,57,57,57,55,55,54,57,57,57,55,56,53,57,57,57,55,57,54,57,57,57,55,58,54,57,57,57,54,58,56,57,57,57,56,58,56,57,57,57,55,59,57,57,57,57,55,59,57,57,57,57,55,59,59,57,57,57,56,59,59,57,57,57,56,59,59,57,57,57,57,59,59,57,57,57,58,58,59,57,57,57,58,57,58,57,57,57,58,57,57,57,57,57,58,56,57,57,57,57,58,56,57,57,57,57,58,56,57,clockwise
56,57,56,55,64,55,57,57,56,59,65,55,57,57,57,58,64,58,57,57,57,59,63,59,57,57,57,60,60,59,58,57,57,61,57,59,58,57,57,60,53,60,57,57,57,61,51,58,57,56,57,59,50,56,57,56,57,57,51,54,57,57,57,57,54,52,57,57,57,55,55,51,57,57,57,53,57,52,57,57,57,52,58,54,57,57,57,53,59,54,57,57,57,51,60,58,57,57,57,55,60,58,57,57,57,55,61,60,57,57,57,57,61,59,57,57,57,57,60,61,57,57,57,58,58,60,57,57,57,58,57,59,57,57,57,59,56,58,57,57,57,59,55,58,57,57,57,58,55,58,57,57,57,58,55,57,57,57,57,57,56,57,57,57,57,57,57,57,57,57,57,57,57,57,57,57,57,57,57,57,clockwise
57,58,56,53,74,65,57,58,57,57,67,62,57,57,57,58,62,61,57,57,57,60,59,60,57,57,57,59,58,61,57,57,57,61,53,57,57,57,57,60,52,56,57,57,57,59,52,54,57,57,57,56,53,54,57,57,57,56,55,53,57,57,57,54,56,53,57,57,57,53,58,54,57,57,57,53,58,55,57,57,57,54,59,56,57,57,57,54,59,57,57,57,57,55,59,58,57,57,57,56,59,59,57,57,57,56,59,58,57,57,57,57,59,59,57,57,57,58,58,58,57,57,57,58,57,59,57,57,57,58,56,58,57,57,57,58,56,58,57,57,57,58,56,57,57,57,57,58,56,57,57,57,57,57,56,57,57,57,57,57,57,57,57,57,57,57,57,57,57,57,57,57,57,57,57,57,57,57,57,58,clockwise
57,58,57,56,81,62,57,58,57,62,67,61,57,57,57,61,61,61,57,57,57,61,58,60,57,57,57,60,57,59,57,57,57,61,51,57,57,57,57,59,51,56,57,57,57,57,52,54,57,57,57,56,54,53,57,57,57,55,55,53,57,57,57,54,57,53,57,57,57,54,58,54,57,57,57,54,59,55,57,57,57,54,59,56,57,57,57,54,60,57,57,57,57,54,60,58,57,57,57,55,60,59,57,57,57,57,59,59,57,57,57,58,59,60,57,57,57,58,58,59,57,57,57,59,57,59,57,57,57,59,56,58,57,57,57,58,56,58,57,57,57,57,55,57,57,57,57,57,56,57,57,57,57,57,56,57,57,57,57,57,56,57,57,57,57,57,57,57,57,57,57,57,57,57,57,57,57,57,57,57,clockwise
57,58,57,55,74,63,57,58,57,63,65,61,57,57,57,61,61,61,57,57,57,60,59,60,57,57,57,59,58,60,57,57,57,60,53,57,57,57,57,58,52,56,57,57,57,58,52,55,57,57,57,58,53,54,57,57,57,56,54,54,57,57,57,56,55,53,57,57,57,55,57,54,57,57,57,55,58,54,57,57,57,53,60,56,57,57,57,54,60,56,57,57,57,54,60,57,57,57,57,55,60,57,57,57,57,55,59,59,57,57,57,57,59,59,57,57,57,57,59,60,57,57,57,59,59,59,57,57,57,58,58,59,57,57,57,58,57,59,57,57,57,58,56,58,57,57,57,58,55,57,57,57,57,58,55,57,57,57,57,57,55,57,57,57,57,57,56,56,57,57,57,57,57,57,57,57,57,57,57,57,clockwise
56,57,56,58,63,55,57,57,57,56,64,57,57,57,57,58,64,58,57,57,57,58,62,59,57,57,57,59,60,58,57,57,57,59,57,60,57,57,57,60,54,58,57,57,57,59,52,59,57,57,57,60,51,56,57,57,57,58,52,55,57,57,57,57,54,54,57,57,57,56,55,53,57,57,57,55,56,53,57,57,57,55,57,54,57,57,57,54,58,55,57,57,57,54,59,55,57,57,57,54,59,57,57,57,57,55,60,57,57,57,57,54,60,58,57,57,57,55,60,59,57,57,57,56,60,59,57,57,57,58,59,59,57,57,57,58,58,59,57,57,57,59,56,59,57,57,57,59,56,58,57,57,57,58,55,58,57,57,57,58,55,57,57,57,57,57,56,57,57,57,57,57,56,57,57,57,57,57,57,57,clockwise
57,58,57,56,76,63,57,58,57,61,65,62,57,57,57,60,61,61,57,57,57,61,58,60,57,57,57,60,56,60,57,57,57,61,51,57,57,57,57,59,51,56,57,57,57,57,52,54,57,57,57,55,54,53,57,57,57,55,56,53,57,57,57,54,58,52,57,57,57,53,59,54,57,57,57,53,60,55,57,57,57,53,60,56,57,57,57,53,61,58,57,57,57,55,60,59,57,57,57,56,59,60,57,57,57,59,59,59,57,57,57,58,57,59,57,57,57,60,56,58,57,57,57,59,55,58,57,57,57,59,55,57,57,57,57,57,56,58,57,57,57,58,56,57,57,57,57,57,57,57,57,57,57,57,57,57,57,57,57,57,57,57,57,57,57,57,57,57,57,57,57,57,57,57,57,57,57,57,57,57,clockwise
57,58,57,56,75,63,57,58,57,62,64,62,57,57,57,61,59,61,57,57,57,61,57,60,57,57,57,60,56,60,57,57,57,60,52,57,57,57,57,58,52,56,57,57,57,56,54,54,57,57,57,56,55,53,57,57,57,55,56,53,57,57,57,55,57,53,57,57,57,54,58,55,57,57,57,55,59,55,57,57,57,55,59,57,57,57,57,55,59,57,57,57,57,55,59,58,57,57,57,56,59,58,57,57,57,56,59,59,57,57,57,57,58,59,57,57,57,57,58,59,57,57,57,58,58,58,57,57,57,57,58,58,57,57,57,58,57,58,57,57,57,58,57,58,57,57,57,58,57,57,57,57,57,58,56,57,57,57,57,58,56,57,57,57,57,58,56,57,57,57,57,57,56,57,57,57,57,57,56,57,clockwise
57,58,57,58,73,65,57,58,57,62,63,62,57,57,57,61,60,61,57,57,57,61,58,60,57,57,57,60,57,60,57,57,57,60,52,56,57,57,57,58,52,55,57,57,57,57,53,54,57,57,57,56,54,53,57,57,57,55,56,53,57,57,57,54,57,53,57,57,57,53,58,55,57,57,57,54,59,55,57,57,57,54,59,56,57,57,57,55,60,57,57,57,57,55,60,58,57,57,57,56,59,59,57,57,57,56,59,59,57,57,57,57,59,59,57,57,57,57,58,59,57,57,57,58,57,58,57,57,57,58,57,58,57,57,57,58,57,58,57,57,57,58,56,57,57,57,57,58,56,57,57,57,57,58,56,57,57,57,57,58,56,57,57,57,57,57,56,57,57,57,57,57,56,57,57,57,57,57,57,57,clockwise
58,58,57,64,79,61,58,57,57,61,67,61,58,57,57,61,61,61,57,57,57,60,57,60,57,57,57,61,56,59,57,57,57,59,50,58,57,57,57,60,50,55,57,57,57,58,52,55,57,57,57,57,54,53,57,57,57,55,56,53,57,57,57,55,57,53,57,57,57,54,58,55,57,57,57,54,58,55,57,57,57,54,59,56,57,57,57,54,59,57,57,57,57,55,59,57,57,57,57,55,60,58,57,57,57,56,60,58,57,57,57,56,59,59,57,57,57,57,59,59,57,57,57,57,58,59,57,57,57,58,57,58,57,57,57,58,56,59,57,57,57,59,56,57,57,57,57,58,56,58,57,57,57,58,56,57,57,57,57,57,56,58,57,57,57,57,56,57,57,57,57,57,57,57,57,57,57,57,57,57,clockwise
57,58,56,51,70,58,57,57,57,60,66,57,57,57,57,57,64,59,57,57,57,59,61,59,57,57,57,59,59,60,57,57,57,61,55,58,57,57,57,59,53,60,57,57,57,60,52,56,57,57,57,58,52,56,57,57,57,57,53,55,57,57,57,56,55,54,57,57,57,55,56,54,57,57,57,55,57,54,57,57,57,55,58,55,57,57,57,55,58,55,57,57,57,55,59,56,57,57,57,55,59,56,57,57,57,55,59,57,57,57,57,55,59,57,57,57,57,56,59,58,57,57,57,56,59,58,57,57,57,56,58,58,57,57,57,57,58,58,57,57,57,57,58,58,57,57,57,58,58,58,57,57,57,57,57,58,57,57,57,58,57,57,57,57,57,58,56,58,57,57,57,58,56,57,57,57,57,57,55,58,clockwise
56,57,56,57,62,54,57,57,57,56,63,56,57,57,57,57,63,57,57,57,57,57,62,59,57,57,57,59,60,58,57,57,57,60,58,60,57,57,57,61,56,59,57,57,57,60,53,59,57,57,57,61,52,56,57,56,57,58,52,55,57,57,57,57,53,54,57,57,57,56,54,53,57,57,57,54,55,53,57,57,57,55,56,54,57,57,57,55,57,54,57,57,57,54,58,55,57,57,57,54,58,57,57,57,57,55,59,56,57,57,57,54,59,58,57,57,57,55,59,58,57,57,57,55,60,59,57,57,57,57,59,59,57,57,57,57,59,59,57,57,57,58,58,58,57,57,57,58,58,59,57,57,57,58,57,58,57,57,57,58,57,58,57,57,57,58,56,58,57,57,57,58,56,57,57,57,57,58,55,57,clockwise
56,57,56,57,64,55,57,57,57,57,63,57,57,57,57,57,62,58,57,57,57,58,61,59,57,57,57,59,60,59,57,57,57,60,58,60,57,57,57,60,55,59,57,57,57,61,53,58,57,57,57,60,52,57,57,56,57,58,52,54,57,57,57,57,53,53,57,57,57,56,54,52,57,57,57,54,55,53,57,57,57,54,57,52,57,57,57,53,58,55,57,57,57,55,59,55,57,57,57,54,59,58,57,57,57,54,59,57,57,57,57,54,59,59,57,57,57,55,60,58,57,57,57,54,60,60,57,57,57,57,59,59,57,57,57,58,59,59,57,57,57,59,58,58,57,57,57,59,57,59,57,57,57,59,56,58,57,57,57,59,55,58,57,57,57,58,55,57,57,57,57,57,55,57,57,57,57,57,56,57,clockwise
57,58,56,56,74,59,57,58,57,58,66,61,57,57,57,61,62,61,57,57,57,61,60,61,57,57,57,61,58,59,57,57,57,61,53,59,57,57,57,61,52,56,57,56,57,58,52,54,57,57,57,57,52,53,57,57,57,56,54,52,57,57,57,54,56,53,57,57,57,54,57,54,57,57,57,54,58,55,57,57,57,54,58,56,57,57,57,54,59,57,57,57,57,55,59,57,57,57,57,55,60,58,57,57,57,55,60,59,57,57,57,56,60,59,57,57,57,57,60,59,57,57,57,57,59,59,57,57,57,58,59,59,57,57,57,58,58,58,57,57,57,58,56,58,57,57,57,59,55,58,57,57,57,58,55,57,57,57,57,58,54,57,57,57,57,57,55,57,57,57,57,57,56,57,57,57,57,57,56,58,clockwise
56,58,56,54,68,57,57,57,57,57,65,58,57,57,57,58,63,59,57,57,57,60,61,59,57,57,57,61,60,59,57,57,57,61,57,59,57,57,57,61,54,59,57,57,57,60,52,57,57,56,57,58,52,55,57,57,57,57,52,54,57,57,57,56,53,53,57,57,57,55,54,53,57,57,57,55,56,54,57,57,57,54,57,53,57,57,57,53,58,55,57,57,57,54,59,56,57,57,57,54,60,57,57,57,57,54,60,57,57,57,57,55,60,58,57,57,57,56,60,58,57,57,57,57,59,59,57,57,57,57,59,60,57,57,57,58,59,59,57,57,57,58,58,59,57,57,57,58,57,59,57,57,57,58,56,59,57,57,57,59,56,58,57,57,57,58,55,57,57,57,57,58,55,57,57,57,57,57,55,57,clockwise
58,57,58,56,54,54,58,57,57,55,53,56,57,58,57,59,52,56,57,57,57,59,52,58,57,57,57,58,53,59,57,57,57,59,55,61,57,57,56,58,58,60,57,57,56,55,61,61,57,56,57,55,64,60,57,56,57,54,64,58,57,57,57,53,63,56,57,57,58,54,61,54,57,57,58,54,58,53,57,57,58,55,56,52,57,57,57,56,55,52,57,57,57,58,54,53,57,57,57,58,52,55,57,57,57,59,52,56,57,57,57,59,52,57,57,57,57,59,53,58,57,57,57,58,56,60,57,57,57,59,58,59,57,57,57,58,60,58,57,57,57,57,60,59,57,57,57,57,59,58,57,57,57,57,58,57,57,57,57,57,58,57,57,57,57,57,57,57,57,57,57,57,57,57,57,57,57,57,57,57,notClockwise
58,57,58,53,53,54,58,57,58,56,52,55,57,58,57,60,51,56,57,57,57,59,52,58,57,57,57,59,54,59,57,57,56,59,56,61,57,57,56,57,59,60,57,56,57,55,62,61,57,56,57,54,64,60,57,56,57,54,64,57,57,57,57,54,62,55,57,57,58,55,60,54,57,57,57,56,58,54,57,57,57,56,56,53,57,57,57,56,55,54,57,57,57,57,54,54,57,57,57,57,54,55,57,57,57,57,53,56,57,57,57,58,53,56,57,57,57,58,54,57,57,57,57,59,54,58,57,57,57,58,56,59,57,57,57,59,57,58,57,57,57,57,58,59,57,57,57,58,59,57,57,57,57,56,59,59,57,57,57,57,59,57,57,57,57,57,59,58,57,57,57,57,58,56,57,57,57,57,58,57,notClockwise
58,57,58,54,55,54,57,57,58,55,53,56,57,58,57,59,52,57,57,57,57,60,53,58,57,57,57,59,54,59,57,57,56,60,56,61,57,57,56,59,59,61,57,56,57,56,62,60,57,56,57,54,63,60,57,56,57,54,63,57,57,57,58,54,61,56,57,57,58,55,59,54,57,57,58,56,57,54,57,57,57,55,55,54,57,57,57,56,54,54,57,57,57,56,54,55,57,57,57,58,55,54,57,57,57,58,55,55,57,57,57,59,55,55,57,57,57,59,55,56,57,57,57,59,55,57,57,57,57,59,55,58,57,57,57,58,56,58,57,57,57,58,57,58,57,57,57,57,58,59,57,57,57,57,58,58,57,57,57,57,58,58,57,57,57,57,58,58,57,57,57,57,58,58,57,57,57,57,58,57,notClockwise
58,57,58,52,59,55,58,57,58,54,55,55,57,57,57,57,52,56,57,57,57,60,52,57,57,57,57,59,53,59,57,57,56,61,54,60,57,57,56,59,57,62,57,57,56,57,61,61,57,56,57,54,63,62,57,56,57,54,64,58,57,57,57,53,63,57,57,57,57,53,61,55,57,57,58,55,59,54,57,57,58,56,57,53,57,57,57,57,56,52,57,57,57,57,54,53,57,57,57,58,53,54,57,57,57,58,52,54,57,57,57,59,52,54,57,57,57,58,53,56,57,57,57,58,54,58,57,57,57,58,57,59,57,57,57,58,59,59,57,57,57,57,60,59,57,57,57,57,59,59,57,57,57,57,59,58,57,57,57,57,58,58,57,57,57,57,57,56,57,57,57,57,57,57,57,57,57,57,57,57,notClockwise
58,57,58,54,51,53,57,58,57,58,51,55,57,58,57,60,53,57,57,57,57,59,53,58,57,57,57,59,54,58,57,57,57,59,57,61,57,57,57,57,59,62,57,57,57,55,61,61,57,57,57,56,63,59,57,56,57,54,63,59,57,57,57,55,62,56,57,57,57,55,60,54,57,57,58,55,58,53,57,57,57,55,56,53,57,57,57,56,54,52,57,57,57,56,53,54,57,57,57,58,53,54,57,57,57,59,52,55,57,57,57,60,53,55,57,57,57,59,54,57,57,57,57,59,56,57,57,57,57,58,57,59,57,57,57,58,59,58,57,57,57,57,60,60,57,57,57,57,59,58,57,57,57,57,59,58,57,57,57,57,58,58,57,57,57,57,58,57,57,57,57,57,57,57,57,57,57,57,57,57,notClockwise
58,57,58,56,53,56,57,57,58,58,53,55,57,57,57,59,52,56,57,57,57,59,52,57,57,57,57,58,53,59,57,57,57,58,55,60,57,57,56,58,57,61,57,57,56,56,60,61,57,57,57,55,62,61,57,56,57,55,63,60,57,56,57,54,63,57,57,57,57,54,61,56,57,57,57,55,59,55,57,57,57,54,57,54,57,57,57,55,56,54,57,57,57,56,55,54,57,57,57,56,55,53,57,57,57,57,54,54,57,57,57,58,54,54,57,57,57,59,53,55,57,57,57,59,53,56,57,57,57,59,53,57,57,57,57,59,55,58,57,57,57,58,56,58,57,57,57,58,58,59,57,57,57,58,59,59,57,57,57,58,60,59,57,57,57,57,60,58,57,57,57,57,59,58,57,57,57,57,58,57,notClockwise
58,57,58,54,54,55,57,57,58,55,52,55,57,57,57,59,52,56,57,57,57,59,53,58,57,57,57,58,54,59,57,57,56,59,56,60,57,57,56,58,59,60,57,57,57,56,62,61,57,57,57,55,64,60,57,57,57,54,64,57,57,57,57,54,63,57,57,57,57,55,60,54,57,57,57,54,58,54,57,57,58,56,56,52,57,57,57,57,54,53,57,57,57,58,53,53,57,57,57,58,52,54,57,57,57,59,52,55,57,57,57,59,53,56,57,57,57,58,54,58,57,57,57,58,56,58,57,57,57,58,57,59,57,57,57,57,58,59,57,57,57,57,59,59,57,57,57,58,59,58,57,57,57,57,59,58,57,57,57,57,58,57,57,57,57,57,58,57,57,57,57,57,58,57,57,57,57,57,57,57,notClockwise
58,57,58,55,54,55,57,57,57,54,53,55,57,57,57,57,52,57,57,57,57,59,52,58,57,57,57,58,53,60,57,57,56,59,55,61,57,57,56,59,59,61,57,57,56,57,62,60,57,56,57,55,64,61,57,56,57,55,65,57,57,57,57,53,64,55,57,57,58,54,61,53,57,57,58,54,58,52,57,57,58,55,55,52,57,57,57,57,53,53,57,57,57,58,51,53,57,57,57,59,51,54,57,57,57,60,51,56,57,57,57,59,53,58,57,57,57,59,55,59,57,57,57,59,57,60,57,57,57,58,60,59,57,57,57,58,60,60,57,57,57,58,59,58,57,57,57,57,59,57,57,57,57,57,58,57,57,57,57,57,57,57,57,57,57,57,57,56,57,57,57,57,57,57,57,57,57,57,57,57,notClockwise
58,57,58,52,53,54,58,57,58,53,51,56,57,58,57,57,51,58,57,57,57,59,52,60,57,57,57,59,54,60,57,57,56,59,56,61,57,57,56,59,60,61,57,56,57,57,64,60,57,56,57,54,66,58,57,57,57,53,65,56,57,57,58,53,63,54,57,57,58,54,59,53,57,57,58,54,56,53,57,57,58,56,54,52,57,57,57,57,53,53,57,57,57,60,52,53,57,57,57,60,52,55,57,57,57,60,52,56,57,57,57,59,53,57,57,57,57,58,54,58,57,57,57,57,56,60,57,57,57,58,58,58,57,57,57,57,59,59,57,57,57,57,59,58,57,57,57,57,59,58,57,57,57,58,59,57,57,57,57,57,58,57,57,57,57,57,58,57,57,57,57,57,57,57,57,57,57,57,57,57,notClockwise
58,57,58,55,54,53,58,57,57,54,52,55,57,57,57,55,51,57,57,57,57,58,52,59,57,57,57,58,54,60,57,57,56,59,56,61,57,57,56,59,60,62,57,57,56,58,63,60,57,56,57,55,65,60,57,56,57,54,65,56,57,57,57,53,63,54,57,57,58,53,60,53,57,57,58,54,57,52,57,57,58,55,55,52,57,57,57,57,53,53,57,57,57,58,52,53,57,57,57,59,51,54,57,57,57,59,52,56,57,57,57,60,52,56,57,57,57,58,53,58,57,57,57,58,55,59,57,57,57,58,58,60,57,57,57,58,59,59,57,57,57,57,60,59,57,57,57,58,60,58,57,57,57,57,59,58,57,57,57,58,59,57,57,57,57,57,58,57,57,57,57,57,58,57,57,57,57,57,57,57,notClockwise
58,57,58,53,52,55,57,57,57,54,52,56,57,58,57,56,51,57,57,57,57,58,52,59,57,57,57,58,54,60,57,57,56,59,56,61,57,57,56,58,59,61,57,57,57,57,62,61,57,56,57,56,64,60,57,57,57,55,64,56,57,57,57,54,63,56,57,57,57,55,61,54,57,57,57,54,59,54,57,57,58,55,56,53,57,57,57,55,55,53,57,57,57,56,54,53,57,57,57,58,53,54,57,57,57,59,52,54,57,57,57,59,52,55,57,57,57,59,52,57,57,57,57,59,53,58,57,57,57,59,55,59,57,57,57,58,57,60,57,57,57,58,60,58,57,57,57,58,61,59,57,57,57,58,60,57,57,57,57,57,59,58,57,57,57,58,58,57,57,57,57,57,58,57,57,57,57,57,57,57,notClockwise
58,57,58,51,53,55,58,58,58,55,52,56,57,58,57,60,51,57,57,57,57,58,52,60,57,57,57,58,55,60,57,57,56,59,57,61,57,57,56,58,61,60,57,56,57,55,64,61,57,56,57,55,64,59,57,57,57,54,63,55,57,57,58,54,60,54,57,57,58,54,58,52,57,57,58,54,56,54,57,57,57,56,55,52,57,57,57,57,54,54,57,57,57,57,54,54,57,57,57,58,54,55,57,57,57,58,54,56,57,57,57,59,54,57,57,57,57,59,54,58,57,57,57,59,55,58,57,57,57,58,56,59,57,57,57,59,57,59,57,57,57,58,58,59,57,57,57,58,59,57,57,57,57,57,59,58,57,57,57,58,59,57,57,57,57,57,58,57,57,57,57,57,58,57,57,57,57,57,57,57,notClockwise
57,59,56,68,38,67,57,57,56,61,50,66,57,57,56,60,56,64,57,57,57,57,59,62,57,57,57,57,60,61,57,56,57,54,65,59,57,57,57,54,64,56,57,57,58,53,62,54,57,57,58,54,59,54,57,57,58,55,56,54,57,57,58,56,54,53,57,57,57,56,53,53,57,57,57,57,52,54,57,57,57,59,52,55,57,57,57,58,52,56,57,57,57,59,53,57,57,57,57,59,54,58,57,57,57,59,56,59,57,57,57,58,58,60,57,57,57,58,59,59,57,57,57,58,60,58,57,57,57,58,60,57,57,57,57,58,59,57,57,57,57,57,58,57,57,57,57,58,58,57,57,57,57,57,57,57,57,57,57,57,57,57,57,57,57,57,57,57,57,57,57,57,57,57,57,57,57,57,57,57,notClockwise
58,57,58,56,52,56,57,58,57,58,51,57,57,57,57,59,51,58,57,57,57,58,53,60,57,57,57,58,55,60,57,57,57,57,57,60,57,57,57,57,61,60,57,57,57,55,63,60,57,57,57,55,64,58,57,57,57,54,63,56,57,57,57,54,61,55,57,57,58,54,59,54,57,57,57,55,56,53,57,57,57,56,55,53,57,57,57,57,53,53,57,57,57,58,52,54,57,57,57,59,52,55,57,57,57,60,52,56,57,57,57,58,53,57,57,57,57,59,54,58,57,57,57,58,56,59,57,57,57,58,58,58,57,57,57,57,59,60,57,57,57,59,60,58,57,57,57,57,60,58,57,57,57,57,59,58,57,57,57,57,59,57,57,57,57,57,58,57,57,57,57,57,58,57,57,57,57,57,57,57,notClockwise
57,58,58,54,47,58,57,58,57,58,50,59,57,57,57,59,52,60,57,57,57,58,54,61,57,57,57,57,56,60,57,57,57,58,60,60,57,57,57,57,63,60,57,57,57,55,64,58,57,57,57,54,64,57,57,57,57,54,62,55,57,57,57,54,59,53,57,57,58,55,57,53,57,57,57,56,55,52,57,57,57,57,53,53,57,57,57,58,53,53,57,57,57,58,52,55,57,57,57,59,52,56,57,57,57,59,52,57,57,57,57,58,54,58,57,57,57,58,55,59,57,57,57,58,57,59,57,57,57,58,59,59,57,57,57,58,60,59,57,57,57,58,60,58,57,57,57,57,59,58,57,57,57,57,58,57,57,57,57,57,58,57,57,57,57,57,57,57,57,57,57,57,57,57,57,57,57,57,57,57,notClockwise
58,57,58,52,53,56,57,57,57,54,52,56,57,57,57,56,51,58,57,57,57,58,53,59,57,57,57,58,55,60,57,57,57,59,58,60,57,57,56,58,61,61,57,57,57,58,63,59,57,57,57,56,64,59,57,57,57,56,63,56,57,57,57,55,61,55,57,57,57,55,59,54,57,57,57,54,57,54,57,57,57,54,55,54,57,57,57,56,54,53,57,57,57,56,54,54,57,57,57,57,53,55,57,57,57,58,53,56,57,57,57,59,53,57,57,57,57,58,53,58,57,57,57,58,55,58,57,57,57,58,57,59,57,57,57,58,58,58,57,57,57,58,59,58,57,57,57,58,60,58,57,57,57,58,59,58,57,57,57,57,59,58,57,57,57,58,58,57,57,57,57,57,57,57,57,57,57,57,57,57,notClockwise
57,57,58,55,55,56,57,57,58,55,53,56,57,57,57,57,52,57,57,57,57,59,53,58,57,57,57,58,54,60,57,57,57,59,56,60,57,57,57,58,59,60,57,57,57,58,62,59,57,56,57,55,63,60,57,57,57,55,63,57,57,57,57,55,62,56,57,57,57,54,59,55,57,57,57,54,58,54,57,57,57,55,56,54,57,57,57,55,55,53,57,57,57,56,54,54,57,57,57,57,54,54,57,57,57,58,53,55,57,57,57,58,53,55,57,57,57,58,54,56,57,57,57,58,54,57,57,57,57,58,56,58,57,57,57,59,57,58,57,57,57,58,58,59,57,57,57,58,59,59,57,57,57,58,59,59,57,57,57,58,58,57,57,57,57,57,58,58,57,57,57,58,58,57,57,57,57,57,58,57,notClockwise
57,57,58,54,55,56,57,57,57,55,53,57,57,58,57,58,52,58,57,57,57,59,53,59,57,57,57,59,55,59,57,57,57,59,57,60,57,57,57,59,60,61,57,57,57,57,62,59,57,57,57,55,63,59,57,57,57,55,62,58,57,57,57,54,61,56,57,57,57,54,59,54,57,57,57,54,57,54,57,57,57,55,56,53,57,57,57,55,55,53,57,57,57,56,54,54,57,57,57,57,54,54,57,57,57,58,54,55,57,57,57,58,54,56,57,57,57,59,54,57,57,57,57,59,55,58,57,57,57,58,56,58,57,57,57,58,57,58,57,57,57,58,58,58,57,57,57,58,59,58,57,57,57,57,59,58,57,57,57,57,59,58,57,57,57,57,58,57,57,57,57,57,58,57,57,57,57,57,57,57,notClockwise
58,58,58,55,50,56,57,58,57,57,51,58,57,57,57,59,52,59,57,57,57,59,54,60,57,57,57,58,56,59,57,57,57,58,58,61,57,57,57,58,60,60,57,57,57,56,62,59,57,57,57,55,62,57,57,57,57,55,62,56,57,57,57,54,60,55,57,57,57,54,58,54,57,57,57,55,56,53,57,57,57,55,55,53,57,57,57,56,54,54,57,57,57,58,53,54,57,57,57,58,53,55,57,57,57,59,53,56,57,57,57,59,54,58,57,57,57,59,55,59,57,57,57,59,56,59,57,57,57,58,57,59,57,57,57,58,59,59,57,57,57,58,59,58,57,57,57,57,59,57,57,57,57,57,59,57,57,57,57,57,58,57,57,57,57,57,58,57,57,57,57,57,57,57,57,57,57,57,57,57,notClockwise
57,57,58,52,51,55,57,58,57,59,51,57,57,57,57,59,53,58,57,57,57,59,55,60,57,57,57,58,56,60,57,57,57,59,59,60,57,57,57,56,61,60,57,56,57,56,63,59,57,56,57,54,63,57,57,57,57,54,61,55,57,57,57,53,59,54,57,57,57,54,56,52,57,57,57,55,54,53,57,57,57,56,52,53,57,58,57,58,51,55,57,57,57,60,51,55,57,57,57,60,53,56,57,57,57,60,54,58,57,57,57,59,56,59,57,57,57,59,59,59,57,57,57,57,59,59,57,57,57,57,60,57,57,57,57,57,59,59,57,57,57,57,59,57,57,57,57,57,58,57,57,57,57,57,58,57,57,57,57,57,57,57,57,57,57,57,57,57,57,57,57,57,57,57,57,57,57,57,57,57,notClockwise
57,58,58,55,50,53,57,58,57,59,52,56,57,57,57,57,53,59,57,57,57,58,55,60,57,57,57,58,56,59,57,57,57,58,58,60,57,57,57,57,60,61,57,57,57,58,61,59,57,57,57,56,61,58,57,57,57,55,61,57,57,57,57,55,60,56,57,57,57,54,59,55,57,57,57,54,58,54,57,57,57,55,56,54,57,57,57,56,55,53,57,57,57,56,54,54,57,57,57,57,54,54,57,57,57,57,54,55,57,57,57,59,54,55,57,57,57,58,54,56,57,57,57,59,55,57,57,57,57,59,55,58,57,57,57,59,56,58,57,57,57,57,57,59,57,57,57,59,58,58,57,57,57,57,59,58,57,57,57,58,59,58,57,57,57,57,59,58,57,57,57,57,58,57,57,57,57,57,58,58,notClockwise
57,58,58,54,52,58,57,57,57,55,53,59,57,58,57,59,53,59,57,57,57,59,54,59,57,57,57,59,56,59,57,57,57,59,58,60,57,57,57,59,60,59,57,57,57,57,61,59,57,57,57,56,61,58,57,57,57,55,61,57,57,57,57,55,60,56,57,57,57,54,59,55,57,57,57,54,58,55,57,57,57,54,57,54,57,57,57,55,56,54,57,57,57,55,55,54,57,57,57,56,54,54,57,57,57,58,54,55,57,57,57,58,53,55,57,57,57,59,53,56,57,57,57,59,53,58,57,57,57,60,55,58,57,57,57,59,57,59,57,57,57,59,58,58,57,57,57,58,59,59,57,57,57,58,59,58,57,57,57,57,59,58,57,57,57,57,59,58,57,57,57,57,58,57,57,57,57,57,58,57,notClockwise
57,58,57,56,44,57,57,58,57,59,51,60,57,57,57,58,54,61,57,57,57,58,56,61,57,57,57,58,57,60,57,57,57,58,61,60,57,57,57,57,62,59,57,57,57,56,62,58,57,57,57,55,61,56,57,57,57,54,60,55,57,57,57,54,58,54,57,57,57,54,57,54,57,57,57,55,56,54,57,57,57,56,55,54,57,57,57,57,54,55,57,57,57,58,54,55,57,57,57,58,54,56,57,57,57,58,54,57,57,57,57,58,55,57,57,57,57,58,55,58,57,57,57,58,55,58,57,57,57,58,56,58,57,57,57,58,56,58,57,57,57,58,57,58,57,57,57,58,58,58,57,57,57,58,58,58,57,57,57,57,58,57,57,57,57,57,58,57,57,57,57,57,58,57,57,57,57,57,58,57,notClockwise
57,58,58,58,50,57,57,58,57,60,52,58,57,57,57,60,53,60,57,57,57,58,55,61,57,57,57,58,56,60,57,57,57,58,59,60,57,57,57,56,61,60,57,57,57,55,62,59,57,57,57,55,62,57,57,57,57,55,61,56,57,57,57,54,60,55,57,57,57,55,58,54,57,57,57,54,56,54,57,57,57,55,55,53,57,57,57,55,55,54,57,57,57,57,54,54,57,57,57,58,55,55,57,57,57,59,54,55,57,57,57,59,54,56,57,57,57,59,54,57,57,57,57,59,54,58,57,57,57,58,55,58,57,57,57,58,56,59,57,57,57,58,58,59,57,57,57,58,59,58,57,57,57,57,59,58,57,57,57,58,59,58,57,57,57,57,59,57,57,57,57,57,58,57,57,57,57,57,58,57,notClockwise
58,58,58,55,49,55,57,58,57,58,51,58,57,57,57,59,52,59,57,57,57,58,54,61,57,57,57,58,55,59,57,57,57,58,58,61,57,57,57,57,61,59,57,57,57,56,63,60,57,57,57,55,63,57,57,57,57,54,62,56,57,57,57,54,60,55,57,57,57,54,58,54,57,57,57,54,56,54,57,57,57,55,55,54,57,57,57,56,54,54,57,57,57,57,55,55,57,57,57,58,55,55,57,57,57,59,54,56,57,57,57,59,54,56,57,57,57,58,54,57,57,57,57,59,54,58,57,57,57,58,55,58,57,57,57,58,56,58,57,57,57,57,57,59,57,57,57,58,58,58,57,57,57,58,58,58,57,57,57,58,59,57,57,57,57,57,59,57,57,57,57,57,59,57,57,57,57,57,59,57,notClockwise
57,58,58,53,51,56,57,58,57,59,51,58,57,57,57,61,52,59,57,57,57,58,53,60,57,57,57,59,55,59,57,57,57,58,58,61,57,57,57,56,61,60,57,57,57,55,63,60,57,57,57,55,63,58,57,57,57,54,63,57,57,57,57,54,61,55,57,57,57,54,58,54,57,57,57,55,56,53,57,57,57,55,55,53,57,57,57,56,54,53,57,57,57,57,53,54,57,57,57,58,54,55,57,57,57,59,53,55,57,57,57,59,54,57,57,57,57,59,54,58,57,57,57,58,55,59,57,57,57,59,56,58,57,57,57,58,57,59,57,57,57,58,58,58,57,57,57,58,59,58,57,57,57,58,59,57,57,57,57,57,59,57,57,57,57,57,58,57,57,57,57,57,58,57,57,57,57,57,58,57,notClockwise
57,57,58,57,54,54,57,57,58,54,53,55,57,58,57,58,52,57,57,57,57,60,52,58,57,57,57,58,54,59,57,57,57,58,56,60,57,57,57,59,58,61,57,57,57,57,61,60,57,57,57,54,63,60,57,57,57,55,63,58,57,57,57,54,62,56,57,57,57,55,60,55,57,57,57,54,58,54,57,57,57,55,57,54,57,57,57,56,56,54,57,57,57,57,55,53,57,57,57,57,55,54,57,57,57,58,55,54,57,57,57,58,55,55,57,57,57,59,54,55,57,57,57,58,54,57,57,57,57,59,54,57,57,57,57,58,55,58,57,57,57,59,55,59,57,57,57,58,57,59,57,57,57,58,58,58,57,57,57,57,58,59,57,57,57,58,59,58,57,57,57,57,59,57,57,57,57,57,59,57,notClockwise
57,57,58,57,55,56,57,57,58,57,54,57,57,58,57,60,53,57,57,57,57,59,54,58,57,57,57,59,55,59,57,57,57,58,56,60,57,57,57,58,58,60,57,57,57,55,60,60,57,57,57,55,61,59,57,57,57,54,62,58,57,57,57,54,61,57,57,57,57,54,60,56,57,57,57,54,58,55,57,57,57,55,57,54,57,57,57,55,56,54,57,57,57,56,55,54,57,57,57,57,55,54,57,57,57,58,55,54,57,57,57,58,54,55,57,57,57,59,54,55,57,57,57,59,54,56,57,57,57,58,55,57,57,57,57,58,55,57,57,57,57,58,56,58,57,57,57,57,56,58,57,57,57,58,57,58,57,57,57,57,58,59,57,57,57,58,59,58,57,57,57,57,59,59,57,57,57,58,59,57,notClockwise
58,59,58,55,46,56,57,58,57,64,50,57,57,57,57,60,53,60,57,57,57,60,54,60,57,57,57,58,56,60,57,57,57,58,60,60,57,56,57,54,62,61,57,56,57,55,63,58,57,57,57,53,63,57,57,57,57,53,61,55,57,57,58,54,59,53,57,57,58,54,56,52,57,57,57,55,54,52,57,58,57,57,53,53,57,58,57,60,52,54,57,57,57,60,52,56,57,57,57,60,53,56,57,57,57,60,55,58,57,57,57,58,57,59,57,57,57,57,59,59,57,57,57,57,60,58,57,57,57,57,59,58,57,57,57,57,59,59,57,57,57,57,58,57,57,57,57,57,57,57,57,57,57,57,57,57,57,57,57,57,57,57,57,57,57,57,57,57,57,57,57,57,57,57,57,57,57,57,57,57,notClockwise
58,57,58,57,56,53,57,57,58,56,54,54,57,57,57,57,53,56,57,57,57,59,53,57,57,57,57,58,54,59,57,57,57,58,55,61,57,57,57,58,57,62,57,57,57,57,61,62,57,56,57,56,63,61,57,56,57,55,64,58,57,57,57,54,63,56,57,57,57,55,61,54,57,57,58,54,58,52,57,57,58,54,56,52,57,57,57,55,54,52,57,57,57,57,53,52,57,57,57,58,52,54,57,57,57,60,52,54,57,57,57,60,53,56,57,57,57,60,54,57,57,57,57,57,55,59,57,57,57,58,57,59,57,57,57,57,59,59,57,57,57,57,59,59,57,57,57,57,60,59,57,57,57,58,59,57,57,57,57,57,58,57,57,57,57,57,58,57,57,57,57,57,57,57,57,57,57,57,57,57,notClockwise
58,57,58,50,52,52,57,58,57,55,51,56,57,58,57,59,52,58,57,57,57,58,53,60,57,57,57,58,55,59,57,57,57,59,57,61,57,57,57,58,60,61,57,57,57,56,62,60,57,57,57,56,63,58,57,57,57,55,63,56,57,57,57,55,62,55,57,57,57,55,59,53,57,57,58,55,57,53,57,57,57,54,55,52,57,57,57,55,53,53,57,57,57,57,52,54,57,57,57,58,52,54,57,57,57,58,53,56,57,57,57,59,54,57,57,57,57,59,55,58,57,57,57,58,57,59,57,57,57,58,58,59,57,57,57,58,59,59,57,57,57,58,59,59,57,57,57,58,59,58,57,57,57,58,58,57,57,57,57,57,58,57,57,57,57,57,58,57,57,57,57,57,57,57,57,57,57,57,57,57,notClockwise
57,56,58,58,57,54,57,57,57,54,56,54,57,58,57,57,53,56,57,57,57,59,53,58,57,57,57,58,54,59,57,57,57,58,54,60,57,57,57,59,56,61,57,57,56,57,59,61,57,56,57,56,62,61,57,56,57,56,63,58,57,57,57,55,63,56,57,57,57,55,62,56,57,57,57,55,60,54,57,57,58,54,58,54,57,57,57,54,56,54,57,57,57,55,56,53,57,57,57,56,55,53,57,57,57,57,54,54,57,57,57,58,53,55,57,57,57,60,52,56,57,57,57,60,52,56,57,57,57,60,53,58,57,57,57,60,55,59,57,57,57,58,57,58,57,57,57,57,59,59,57,57,57,58,60,59,57,57,57,57,60,58,57,57,57,57,59,58,57,57,57,57,58,58,57,57,57,57,58,57,notClockwise
58,57,58,56,55,54,57,57,57,55,54,55,57,57,57,59,53,55,57,57,57,58,53,57,57,57,57,58,53,59,57,57,57,58,55,60,57,57,57,58,57,61,57,57,57,56,60,61,57,57,57,56,62,61,57,57,57,55,63,59,57,57,57,55,63,57,57,57,57,54,62,56,57,57,57,54,60,55,57,57,57,55,58,54,57,57,57,55,57,53,57,57,57,55,55,53,57,57,57,57,54,53,57,57,57,58,54,53,57,57,57,59,53,55,57,57,57,59,53,55,57,57,57,59,53,57,57,57,57,58,55,58,57,57,57,58,56,59,57,57,57,58,58,59,57,57,57,58,59,59,57,57,57,58,59,58,57,57,57,58,59,58,57,57,57,58,59,57,57,57,57,57,58,57,57,57,57,57,58,57,notClockwise
58,57,58,53,50,53,57,58,57,59,51,56,57,57,57,57,52,59,57,57,57,58,53,60,57,57,57,58,54,59,57,57,57,58,57,60,57,57,57,56,60,61,57,57,57,57,62,60,57,56,57,56,63,58,57,57,57,55,63,56,57,57,57,55,62,56,57,57,57,54,60,54,57,57,57,55,58,54,57,57,57,54,56,53,57,57,57,55,55,53,57,57,57,56,54,53,57,57,57,58,53,53,57,57,57,59,53,54,57,57,57,59,53,55,57,57,57,60,53,56,57,57,57,59,55,58,57,57,57,58,56,59,57,57,57,58,58,60,57,57,57,58,59,59,57,57,57,58,60,59,57,57,57,58,59,59,57,57,57,58,59,58,57,57,57,57,58,57,57,57,57,57,57,57,57,57,57,57,57,57,notClockwise
57,57,58,59,55,55,57,57,57,54,54,56,57,58,57,58,53,56,57,57,57,59,53,58,57,57,57,58,54,59,57,57,57,58,55,61,57,57,57,59,57,60,57,57,57,56,60,61,57,57,57,56,62,61,57,57,57,56,63,58,57,57,57,55,63,57,57,57,57,55,61,55,57,57,57,55,59,54,57,57,57,54,57,54,57,57,57,55,56,53,57,57,57,55,55,53,57,57,57,56,54,53,57,57,57,57,54,54,57,57,57,59,53,54,57,57,57,59,53,55,57,57,57,60,53,56,57,57,57,59,54,58,57,57,57,60,55,58,57,57,57,58,57,59,57,57,57,58,58,59,57,57,57,57,59,59,57,57,57,57,60,58,57,57,57,56,59,59,57,57,57,58,59,58,57,57,57,57,58,57,notClockwise
