AccX1,AccY1,AccZ1,GyrX1,GyrY1,GyrZ1,AccX2,AccY2,AccZ2,GyrX2,GyrY2,GyrZ2,AccX3,AccY3,AccZ3,GyrX3,GyrY3,GyrZ3,AccX4,AccY4,AccZ4,GyrX4,GyrY4,GyrZ4,AccX5,AccY5,AccZ5,GyrX5,GyrY5,GyrZ5,AccX6,AccY6,AccZ6,GyrX6,GyrY6,GyrZ6,AccX7,AccY7,AccZ7,GyrX7,GyrY7,GyrZ7,AccX8,AccY8,AccZ8,GyrX8,GyrY8,GyrZ8,AccX9,AccY9,AccZ9,GyrX9,GyrY9,GyrZ9,AccX10,AccY10,AccZ10,GyrX10,GyrY10,GyrZ10,AccX11,AccY11,AccZ11,GyrX11,GyrY11,GyrZ11,AccX12,AccY12,AccZ12,GyrX12,GyrY12,GyrZ12,AccX13,AccY13,AccZ13,GyrX13,GyrY13,GyrZ13,AccX14,AccY14,AccZ14,GyrX14,GyrY14,GyrZ14,AccX15,AccY15,AccZ15,GyrX15,GyrY15,GyrZ15,AccX16,AccY16,AccZ16,GyrX16,GyrY16,GyrZ16,AccX17,AccY17,AccZ17,GyrX17,GyrY17,GyrZ17,AccX18,AccY18,AccZ18,GyrX18,GyrY18,GyrZ18,AccX19,AccY19,AccZ19,GyrX19,GyrY19,GyrZ19,AccX20,AccY20,AccZ20,GyrX20,GyrY20,GyrZ20,AccX21,AccY21,AccZ21,GyrX21,GyrY21,GyrZ21,AccX22,AccY22,AccZ22,GyrX22,GyrY22,GyrZ22,AccX23,AccY23,AccZ23,GyrX23,GyrY23,GyrZ23,AccX24,AccY24,AccZ24,GyrX24,GyrY24,GyrZ24,AccX25,AccY25,AccZ25,GyrX25,GyrY25,GyrZ25,AccX26,AccY26,AccZ26,GyrX26,GyrY26,GyrZ26,AccX27,AccY27,AccZ27,GyrX27,GyrY27,GyrZ27,AccX28,AccY28,AccZ28,GyrX28,GyrY28,GyrZ28,AccX29,AccY29,AccZ29,GyrX29,GyrY29,GyrZ29,AccX30,AccY30,AccZ30,GyrX30,GyrY30,GyrZ30,Label
53,90,122,6083,-221,-2168,-19,8,29,4410,482,-1615,43,-100,45,115,26,154,20,-65,40,228,22,28,18,-51,35,-77,-12,-190,6,-72,2,-1594,5,-422,18,-47,11,-2646,-253,1817,-18,54,-10,-1124,-45,270,-10,57,-14,-861,-48,194,-16,50,-26,-248,-14,-92,-16,55,-21,241,26,177,-12,43,-21,876,66,-88,-9,4,-15,1071,33,-452,-7,-7,-17,671,26,-332,-3,-2,-8,305,24,-116,-1,-2,-4,103,11,-104,0,-1,-2,0,0,-29,0,0,-1,-46,-3,15,0,1,-1,11,0,-11,0,1,0,-5,6,4,0,0,0,31,7,-15,0,1,0,-2,0,18,0,0,0,28,-6,-22,0,-1,0,-9,7,15,0,0,0,19,-3,-8,0,0,0,-11,-2,13,0,0,0,1,1,-10,0,0,0,-10,6,9,0,0,0,-2,-4,-3,0,0,0,-16,-4,4,tilt left
9,-58,148,5709,568,-2028,25,-154,46,1470,389,-173,48,-66,72,442,170,61,29,-74,46,57,32,44,24,-56,33,-167,-7,-727,14,-40,-4,-1844,-176,832,5,35,6,-1442,-234,521,-17,36,-17,-891,-157,236,-16,55,-17,-500,-65,-49,-19,55,-20,-285,-26,193,-12,53,-15,421,36,163,-14,26,-21,719,81,-314,-10,5,-23,599,59,-285,-7,3,-19,485,47,-162,-4,0,-12,468,32,-161,-3,-1,-9,299,23,-154,0,0,-2,162,5,-77,0,-1,-2,50,4,-47,1,0,0,-15,-7,7,1,0,0,0,10,7,1,0,0,-1,8,-5,0,-1,0,-18,-1,16,0,0,0,-4,-10,9,0,0,0,-3,-3,8,0,0,0,0,-6,-1,0,0,0,-1,-4,17,0,0,0,4,-1,-2,0,-1,0,0,5,-2,0,0,0,0,1,-1,0,0,0,4,1,-3,tilt left
52,82,126,5024,-209,-1966,3,-22,32,3098,240,-1271,22,-99,34,677,122,-124,21,-52,45,240,72,18,18,-51,38,70,42,-256,10,-67,11,-1000,71,-142,19,-44,22,-1375,-100,863,0,8,5,-1014,-100,317,-3,12,-14,-1108,-102,354,-6,51,-15,-795,-72,241,-13,49,-20,-491,-50,14,-15,52,-23,-239,-13,76,-9,53,-18,437,16,175,-10,29,-16,883,42,-336,-9,-1,-19,687,24,-293,-4,2,-12,463,17,-159,-3,0,-10,348,16,-136,-1,0,-5,125,13,-89,0,0,-4,40,1,-24,-1,0,-1,14,0,5,0,-1,-3,18,5,-14,0,1,-1,-34,0,29,0,0,-2,13,0,-31,0,0,-1,-72,-3,33,0,2,-1,43,-1,-28,0,0,-1,-9,2,25,-1,0,-1,82,3,-32,0,0,0,25,-4,21,0,0,0,73,3,-55,0,-2,0,-45,8,35,tilt left
29,87,133,7278,-37,-2604,-26,-141,-25,2737,455,-686,41,-69,75,418,111,96,21,-79,39,108,64,33,22,-51,38,-24,1,-785,12,-70,3,-1850,-31,497,23,16,38,-1784,-239,863,-13,24,-22,-1016,-120,255,-6,61,-7,-614,-74,29,-14,48,-21,-335,-7,68,-12,50,-16,72,38,129,-9,41,-18,520,62,22,-8,16,-16,643,48,-318,-8,4,-20,454,16,-183,-5,4,-13,388,-2,-113,-3,2,-11,361,0,-128,-1,-3,-8,198,-14,-67,-1,0,-5,95,0,-22,0,-1,-1,106,-2,-63,0,-1,-2,-19,7,4,0,1,1,-13,0,-17,0,2,0,-6,5,26,0,1,0,56,5,-30,0,-1,0,-15,4,24,0,0,0,9,0,-26,0,-1,0,-6,0,22,0,0,0,-10,-3,-11,-1,0,0,-15,0,2,0,1,0,3,10,-17,0,1,0,0,1,19,tilt left
21,142,70,3228,-193,-848,5,13,36,3207,-150,-1237,-1,0,31,2510,216,-793,16,-77,37,53,-1,83,14,-48,34,104,29,155,13,-74,23,-721,28,-168,12,-53,18,-1502,35,26,10,-44,11,-2095,-175,1292,-6,34,-7,-795,-6,152,-5,47,-15,-841,-42,221,-12,47,-21,-393,-5,40,-13,49,-23,-97,11,109,-9,45,-25,412,45,-40,-7,26,-20,658,9,-190,-10,2,-19,702,15,-294,-7,-3,-16,456,21,-167,-3,0,-10,283,14,-97,-1,0,-6,200,1,-72,0,0,-3,91,-11,-18,0,-2,-1,52,3,-37,0,0,0,18,-7,9,0,-1,0,38,0,-26,0,0,0,-27,-2,13,0,0,0,1,10,-21,0,0,0,-20,-6,6,0,1,0,-3,6,-2,0,0,0,-6,-2,9,0,0,0,4,0,-8,0,0,0,0,-5,6,0,1,0,7,4,1,tilt left
14,-79,134,4530,382,-1767,8,-121,46,1765,405,-355,41,-73,64,360,172,72,27,-74,44,137,74,26,24,-54,35,-27,16,-562,20,-37,5,-1167,-102,405,14,0,10,-1283,-205,501,-9,12,-13,-997,-181,230,-7,52,-10,-740,-118,182,-13,51,-13,-329,-49,40,-15,45,-17,-122,-9,130,-11,48,-16,249,12,137,-11,29,-18,591,60,-128,-10,8,-19,516,41,-301,-9,0,-22,226,23,-48,-7,10,-13,289,18,-95,-6,-2,-15,242,17,-132,-3,4,-8,120,7,-70,-3,0,-8,126,8,-46,-2,3,-4,124,5,-55,-1,-1,-3,114,14,-42,0,2,0,91,7,-12,0,0,-1,83,4,-52,0,-1,0,-28,5,0,0,0,0,10,3,-32,0,-1,-1,-23,-3,30,0,0,0,-6,8,-23,0,0,0,-13,6,18,0,0,0,12,-4,-12,0,0,0,-7,-2,33,tilt left
29,97,127,7299,-153,-2628,-46,-112,-22,3184,458,-763,34,-67,77,184,96,123,22,-75,43,180,65,49,20,-53,41,42,17,-737,15,-71,14,-1507,31,368,37,-2,49,-1352,-205,717,-2,-13,-9,-335,-99,-41,-2,17,1,-619,-116,69,-6,16,-13,-682,-73,206,-11,38,-13,-650,-51,202,-9,45,-14,-369,-6,95,-11,49,-16,-92,32,94,-10,40,-19,241,51,22,-11,32,-17,493,47,-49,-6,10,-16,539,25,-231,-9,-1,-20,321,15,-139,-4,2,-16,215,-6,-75,-7,-1,-17,62,2,-83,-3,5,-10,-1,4,6,-4,3,-13,70,31,-49,-1,3,-9,34,15,-37,-4,2,-8,106,16,-2,0,4,-4,177,1,-40,-2,0,-5,154,7,-64,0,0,0,105,-5,-6,-1,0,0,87,1,-49,0,-1,0,16,-3,-11,0,0,0,-5,10,19,1,-1,0,5,10,-22,tilt left
43,-39,149,2617,-32,-1003,20,-37,83,2052,131,-735,18,-68,54,977,159,-317,21,-61,47,218,91,9,18,-52,42,171,111,-103,11,-37,14,-331,139,44,17,-42,8,-657,85,224,21,-17,9,-605,-35,387,18,-3,6,-326,-105,-49,11,3,2,-390,-203,100,5,-8,-1,-514,-273,48,-1,21,2,-471,-302,11,-17,14,-7,-566,-246,181,-25,31,-14,-583,-95,342,-22,45,-16,-344,35,244,-19,46,-19,-113,127,-57,-18,34,-25,29,163,111,-12,40,-21,384,182,-21,-7,22,-17,607,115,-265,-6,2,-18,493,45,-211,-5,6,-14,398,0,-235,-3,2,-10,283,-13,-116,-1,3,-4,190,-10,-59,-1,-1,-3,143,-1,-48,0,-1,-1,53,-2,-27,0,0,0,48,-1,-33,1,-1,0,-30,3,32,1,0,0,1,10,-13,1,0,0,-33,2,0,1,1,0,3,1,5,tilt left
21,-398,15,1393,217,-179,38,-78,96,536,175,33,27,-89,64,144,112,51,19,-65,42,113,70,16,21,-49,37,58,30,-87,14,33,33,-305,-51,62,3,-15,-2,-322,-110,36,-1,5,-4,-311,-123,19,-3,6,-1,-567,-114,126,-11,20,-10,-602,-104,187,-9,28,-10,-446,-38,166,-11,33,-13,-258,24,55,-10,35,-19,-244,58,146,-9,42,-20,60,60,67,-7,30,-16,332,74,-128,-9,18,-21,320,49,-207,-6,14,-20,235,10,-76,-5,14,-13,379,-3,-71,-3,4,-12,405,-4,-183,-2,0,-12,206,0,-78,-1,0,-6,166,-3,-43,-1,0,-3,134,1,0,0,-2,-2,100,6,-52,0,-1,-1,11,5,7,0,-1,0,11,-3,-22,0,0,1,-23,-1,5,0,0,0,9,3,-15,0,1,0,-5,-5,0,0,0,0,0,0,-14,0,1,0,-3,0,18,tilt left
33,-278,115,2259,624,-160,47,-125,93,631,280,104,31,-91,62,210,123,52,27,-69,45,47,67,-7,22,-52,36,-67,8,-122,14,6,13,-573,-150,113,1,2,0,-404,-155,15,0,9,0,-408,-139,21,-7,7,-5,-467,-137,124,-11,24,-8,-456,-65,211,-9,30,-10,-399,-13,200,-10,36,-12,-244,12,100,-12,37,-18,-61,49,49,-8,42,-14,143,66,16,-8,24,-17,246,54,-55,-8,18,-17,275,32,-179,-9,10,-21,230,26,-95,-6,8,-19,207,18,-113,-7,5,-17,186,22,-53,-4,4,-12,302,2,-79,-3,0,-12,224,11,-88,-1,0,-4,215,8,-50,-1,0,-2,119,-6,-8,1,0,0,123,-2,-81,0,0,0,-41,3,37,0,1,2,60,0,-58,0,0,0,-70,7,40,0,1,0,35,8,-22,0,0,0,-36,-2,16,0,0,0,24,3,-29,tilt left
62,39,155,4668,-176,-1860,-26,-9,37,3695,503,-1453,36,-93,50,-96,107,59,27,-58,47,192,106,-25,23,-42,42,-20,34,-160,10,-54,9,-1015,35,-439,32,-38,25,-1569,-221,1279,-1,11,7,-168,-118,-39,-3,7,-1,-461,-160,138,-8,12,-11,-478,-106,227,-11,29,-13,-422,-48,171,-11,30,-14,-204,0,129,-12,32,-19,-163,53,-14,-10,37,-18,-12,68,156,-10,24,-18,275,68,-70,-7,15,-15,308,48,-248,-8,10,-18,187,31,-71,-4,11,-13,295,-5,-105,-6,1,-14,248,13,-143,-2,6,-8,193,16,-63,-2,1,-7,179,-1,-117,-1,2,-4,98,-12,-5,-2,0,-2,91,8,-34,0,0,0,63,0,-26,0,-2,-2,32,-14,0,0,-1,0,-10,0,8,0,-1,0,7,0,-5,1,1,0,-13,-11,11,0,-1,0,8,-10,-1,0,1,1,-13,-4,2,tilt left
100,-235,175,77,128,152,38,-123,82,73,88,29,26,-74,62,-145,12,1,20,-54,43,-277,-6,75,15,-39,36,-338,-27,169,-9,14,-7,-547,-62,194,-5,35,-7,-514,-42,113,-7,35,-15,-290,-9,161,-10,37,-16,-107,7,33,-11,34,-25,29,35,150,-9,32,-15,317,36,-152,-8,11,-19,328,12,-158,-7,10,-18,263,5,-124,-5,4,-17,202,10,-92,-4,7,-10,252,-2,-115,-4,0,-12,194,9,-103,-2,3,-7,131,0,-56,-3,0,-5,113,-3,-33,-1,3,-2,124,-7,-32,-1,-1,-2,61,2,-32,1,1,-1,26,2,7,0,0,0,38,-4,-6,0,0,0,41,9,-7,0,-2,0,-9,-1,0,0,0,0,7,-4,13,1,0,0,-14,-4,-1,0,-1,0,-13,5,-16,0,0,0,-40,-3,25,0,1,0,10,1,-2,0,-1,0,-12,0,-2,tilt left
52,86,126,4625,-164,-1767,2,49,44,4216,458,-1632,31,-102,51,-207,-2,157,19,-55,42,262,82,-33,21,-40,44,-54,22,-48,8,-64,11,-996,32,-677,17,-63,19,-1813,-200,1559,-2,21,5,-128,-35,-169,-2,0,-2,-621,-118,192,-10,21,-18,-545,-63,237,-9,37,-12,-388,-12,152,-10,34,-17,-260,11,88,-10,37,-21,-78,40,1,-9,43,-18,171,49,108,-8,17,-18,382,44,-223,-7,12,-17,305,9,-132,-7,8,-17,298,12,-125,-4,3,-13,278,-6,-121,-4,2,-13,238,1,-87,-1,2,-6,238,-5,-56,-2,-2,-6,155,1,-55,0,1,-1,88,-6,-34,0,-1,-1,46,0,-26,0,0,1,6,1,5,0,0,0,-19,2,10,0,0,0,0,1,2,0,0,0,18,5,0,0,0,0,5,2,7,0,-2,0,-2,-5,-5,0,0,0,6,8,2,tilt left
44,-77,134,3293,62,-1333,13,-115,51,1209,111,-400,23,-68,50,329,49,-60,18,-56,43,49,45,-14,17,-45,36,-3,18,-371,10,-26,12,-716,-19,265,12,1,15,-666,-73,318,0,-2,2,-619,-76,199,-3,14,-8,-666,-90,277,-5,40,-11,-470,-40,171,-11,32,-18,-251,-9,69,-11,36,-21,-201,15,62,-10,39,-19,123,38,133,-8,31,-16,451,51,-214,-10,5,-17,412,8,-253,-7,8,-14,270,16,-78,-3,7,-9,375,0,-138,-1,1,-8,290,5,-107,-1,-1,-4,171,-1,-91,0,-2,-4,54,9,-20,0,0,-1,24,-8,-21,0,0,-1,-6,7,-1,0,1,0,1,-4,-14,0,0,0,-6,-2,14,0,1,0,-2,-2,-5,0,0,0,1,0,3,0,0,0,5,-6,6,0,-2,-1,-5,0,6,0,0,0,7,2,0,0,0,0,3,0,5,tilt left
80,-286,82,1484,264,-332,36,-96,88,-3,-9,68,19,-76,56,-128,5,18,18,-50,41,-167,-6,48,12,-44,29,-362,-25,-28,-7,24,6,-911,-95,428,-6,27,-14,-564,-3,157,-4,41,-15,-284,-11,65,-10,34,-22,-210,8,62,-11,41,-23,-33,26,148,-9,34,-20,385,47,-122,-9,10,-22,421,15,-255,-8,6,-20,269,22,-137,-5,5,-14,288,-1,-36,-4,3,-10,379,-1,-184,-1,0,-6,225,-1,-58,-1,1,-2,153,-11,-62,-1,-1,-2,86,-16,-20,0,0,-1,61,-6,-35,0,-1,-1,16,-3,6,0,0,-1,9,-4,-10,0,-2,0,-13,3,2,0,0,0,8,-1,-6,0,0,0,-11,2,18,0,1,1,2,0,-13,0,0,0,-11,-2,7,0,1,0,10,3,0,0,0,0,-4,0,-1,0,0,0,9,2,0,0,0,0,-7,3,11,tilt left
72,-270,136,-176,150,-17,51,-97,97,131,118,-1,29,-73,65,-166,-2,36,22,-52,48,-154,5,48,15,-41,36,-337,-29,107,1,27,7,-232,-69,97,-10,8,-10,-487,-60,210,-8,31,-15,-451,3,145,-8,37,-18,-337,5,202,-10,40,-22,-61,40,-80,-12,27,-25,-10,53,36,-7,31,-22,271,9,-69,-7,12,-20,449,1,-215,-8,5,-18,408,-11,-148,-4,2,-12,384,-15,-129,-3,0,-8,292,-13,-94,-2,0,-5,167,1,-58,0,-1,-3,106,-2,-57,0,0,-2,56,-1,-20,0,0,-1,17,0,-20,0,-1,0,-14,1,2,0,0,0,4,-4,-26,0,2,1,-6,-1,21,0,0,0,4,2,13,0,0,0,2,5,-2,0,1,0,9,-1,-3,0,-1,0,0,2,30,0,-1,0,4,-2,-15,0,0,0,0,0,6,0,-1,0,0,0,-3,tilt left
18,-136,94,4734,401,-1851,35,-146,66,260,111,-90,30,-62,65,86,54,-16,22,-54,48,-144,-8,24,17,-39,38,-180,-19,-660,10,-11,16,-1373,-112,836,-2,30,3,-622,-77,252,-10,23,-18,-697,-48,275,-10,44,-21,-413,8,85,-13,40,-24,-98,15,117,-11,35,-27,166,32,-58,-9,28,-23,292,23,-42,-7,16,-17,520,15,-204,-7,0,-16,434,-5,-236,-5,1,-12,257,0,-124,-2,3,-9,253,5,-59,-2,2,-6,242,8,-99,-1,-3,-4,134,2,-26,0,1,-1,98,2,-66,1,-3,-1,20,2,3,0,1,1,13,-6,-12,0,-1,0,-26,-3,-2,0,3,2,-11,0,14,0,-1,0,-4,0,-9,0,2,0,0,0,23,0,-1,-1,-6,-1,2,0,0,0,10,-4,0,0,-2,-1,-6,-4,10,0,0,0,5,-2,-9,-1,-1,0,-11,6,1,tilt left
13,-79,136,6010,493,-2100,43,-153,57,345,58,0,23,-67,64,183,32,48,19,-60,50,-114,-8,36,17,-45,38,-100,-5,-807,13,-27,9,-1514,-131,926,-4,23,9,-668,-75,251,-4,26,-12,-694,-41,216,-6,44,-16,-330,-3,67,-12,39,-21,-243,-1,81,-12,39,-24,-41,34,90,-10,38,-21,298,60,-38,-9,14,-21,468,31,-237,-6,5,-19,382,18,-194,-5,6,-14,299,5,-84,-4,5,-9,339,-9,-115,-2,0,-8,239,-16,-105,0,0,-2,128,-17,-78,-2,-1,-3,43,-16,3,0,0,0,38,-8,-20,0,-1,-1,21,-2,-26,0,0,-1,-1,-3,-1,0,0,0,-5,1,5,0,1,0,9,-2,-3,0,0,0,15,3,-5,0,1,0,8,0,1,0,0,0,-9,8,6,-1,0,0,9,2,3,0,0,0,-4,6,6,0,0,0,5,0,2,tilt left
56,13,149,4228,32,-1833,17,-64,44,2341,285,-928,28,-87,51,145,28,5,20,-55,47,42,25,-3,17,-45,37,-66,-1,-360,7,-44,7,-888,-10,-1,11,-17,19,-1065,-137,794,-1,10,3,-347,-45,74,-5,3,-9,-566,-56,216,-8,30,-14,-594,-7,251,-8,39,-14,-442,13,155,-11,36,-21,-290,25,21,-11,41,-24,-130,21,109,-8,41,-22,274,36,5,-8,17,-19,513,5,-274,-10,2,-23,388,-15,-166,-6,8,-16,380,-5,-115,-5,0,-12,366,5,-130,-3,1,-9,258,-6,-93,-2,-3,-6,140,2,-65,-1,2,-1,97,-1,-32,-1,-3,-2,29,7,-28,0,2,1,19,-1,-10,0,-1,0,3,2,-2,0,2,1,5,3,1,0,-2,0,10,7,-17,0,2,1,12,-3,1,0,-2,-1,0,3,-10,0,1,1,-10,-1,9,0,-1,0,-7,-1,14,tilt left
14,-165,69,4488,592,-1831,41,-134,78,297,104,-59,28,-69,63,82,34,-22,22,-54,50,-76,3,2,17,-41,39,-57,-9,-702,14,-7,25,-1051,-144,744,0,14,5,-364,-72,104,-6,6,-9,-608,-48,265,-6,30,-15,-554,-6,217,-6,38,-15,-382,11,157,-10,35,-24,-221,37,-34,-10,37,-24,-100,29,163,-8,35,-21,339,34,-74,-8,14,-22,416,5,-254,-10,4,-24,303,10,-143,-7,6,-15,272,-10,-81,-5,3,-14,310,4,-139,-2,2,-9,260,-10,-63,-3,-1,-7,198,-3,-77,0,1,-2,175,-16,-35,0,-1,-2,101,1,-33,0,0,1,61,-10,-44,1,-2,-1,-33,0,23,1,2,4,21,-10,-17,1,-3,0,-30,-4,2,0,2,1,4,-14,-1,0,-1,-1,-18,6,14,0,1,1,6,0,-9,0,-1,-1,-2,9,0,0,2,0,-11,6,22,tilt left
55,-11,146,4547,134,-2012,9,-127,45,1289,128,-490,28,-77,57,293,81,-93,21,-46,52,18,26,7,17,-46,41,-52,10,-609,6,-38,12,-961,-28,479,14,12,23,-592,-75,297,-1,8,5,-184,-68,124,-1,-1,-3,-17,-34,-28,-1,8,-2,60,-18,-9,0,3,-3,-58,-22,65,-3,-3,-6,-166,15,63,-10,0,-24,-1100,-29,506,-10,44,-22,-1044,25,288,-15,53,-27,-570,1,160,-17,43,-32,-12,10,-363,-16,42,-36,199,11,497,-8,37,-17,1113,45,-510,-7,-7,-18,1044,-16,-400,-3,-15,-13,577,8,-266,-1,-6,-7,135,18,-56,0,0,1,52,0,-28,1,0,0,0,5,-4,0,3,1,17,5,0,0,0,0,-3,-4,13,0,-1,0,-8,-3,18,-1,0,-1,-14,9,3,0,-1,0,6,12,11,-1,-2,-1,-27,6,20,-1,0,0,-21,10,-5,tilt right
-56,-30,-153,-1246,-651,515,-26,-34,-71,-583,-377,357,-18,-13,-59,-143,-139,106,-11,-12,-43,66,-42,22,-13,-6,-34,159,22,56,-1,2,2,582,169,-40,-1,6,1,791,220,-351,3,-2,17,479,164,-246,3,6,20,271,85,-137,8,0,22,1,12,-8,10,3,21,-139,-28,-170,9,3,21,-315,-60,50,8,6,18,-259,-89,42,8,4,17,-156,-54,107,7,1,15,-116,-35,58,6,0,12,-173,-13,-28,7,3,11,-194,-11,146,4,3,5,-130,3,-11,2,0,3,-120,-4,93,2,2,1,-26,-5,46,1,0,0,-1,-2,2,0,-1,0,-14,-7,63,0,-1,0,-5,0,-33,0,0,0,-20,2,35,0,0,1,-7,0,19,0,0,0,-1,4,-15,0,0,0,-30,1,26,1,0,0,11,0,-22,0,0,0,-10,0,20,0,1,0,2,-3,0,tilt right
-53,58,-135,-2157,-352,595,-22,-46,-85,-517,-277,159,-25,-8,-76,-229,-221,144,-13,-6,-51,-74,-70,73,-13,-4,-43,75,7,173,-3,-14,-11,634,107,-237,-4,17,-1,595,177,-88,4,0,16,578,215,-190,2,0,17,443,147,-219,6,2,25,196,57,-109,9,2,24,115,8,-57,10,0,26,-82,-55,-87,9,0,22,-150,-81,-39,10,1,22,-230,-90,124,9,0,20,-146,-52,15,4,-7,17,-333,-31,175,7,1,15,-288,-6,26,4,1,13,-293,0,201,1,3,8,-100,-2,-60,1,-3,2,-136,-7,217,4,6,2,-17,-11,-74,0,-3,-3,-64,3,44,0,4,-2,-78,1,-15,0,0,-4,-15,1,30,-1,3,-2,-21,-3,-7,0,1,-1,77,-1,-18,-1,0,0,27,-4,65,0,-1,0,84,2,-89,0,-2,-1,-67,9,69,0,3,0,58,9,-58,tilt right
-64,18,-156,-1977,-288,379,-29,-44,-91,-531,-256,53,-24,-10,-74,-228,-148,2,-14,-4,-57,-82,-58,21,-14,-3,-45,56,14,141,-2,-2,-7,630,72,-111,-1,13,1,628,127,-108,3,3,18,626,111,-92,2,-3,21,538,69,-165,10,-1,32,238,-4,-78,9,-7,28,102,-26,-94,10,-5,29,-283,-28,-48,11,-2,24,-251,-32,-118,11,-4,26,-385,-16,128,8,0,19,-261,-11,25,10,-2,17,-336,16,172,6,7,13,-213,2,-31,3,-1,7,-272,5,188,1,6,4,-162,-5,94,-1,0,0,-47,-8,34,-1,2,-3,-77,-15,104,0,-1,-2,82,-1,-50,-1,0,-3,-12,-1,49,-1,1,-1,53,-1,-81,0,-1,-2,-5,6,66,0,0,0,55,-3,-70,0,-2,0,24,-5,11,1,0,1,-15,3,-18,0,0,0,10,-3,-12,0,0,0,-12,-5,32,tilt right
-45,-16,-155,-6730,75,2173,-36,51,-76,-1320,-90,311,-26,-12,-67,-343,-130,53,-17,-3,-62,-145,-146,53,-14,-2,-51,-42,-53,787,-5,0,-21,1391,-14,-653,-1,-14,-15,804,44,-266,0,9,-2,650,107,-98,1,6,13,691,160,-154,6,4,25,559,85,-205,7,8,32,392,14,-132,12,-7,30,121,6,-46,16,3,37,-190,-38,-94,11,-6,31,-336,-41,50,10,-1,25,-496,-27,154,7,-6,21,-421,-1,85,4,2,16,-436,-9,171,0,-3,8,-227,11,9,0,3,4,-298,0,176,-1,1,0,16,-4,-39,-1,0,-1,-56,-16,104,0,0,-1,86,-4,-96,0,-1,-3,-55,2,109,0,3,0,98,-3,-113,0,-1,-1,-56,3,100,0,4,0,37,2,-88,0,-1,-1,-47,1,81,0,3,1,31,-4,-81,0,-3,-1,-23,0,42,0,3,-1,17,-1,-14,tilt right
-61,-29,-165,-8486,-221,2170,-32,52,-119,-199,-118,122,-18,-30,-65,-322,-185,54,-19,-9,-66,-48,-55,-5,-16,-2,-48,63,1,797,-6,6,-14,1851,63,-810,-3,-18,5,473,82,-72,-2,17,4,739,140,-180,4,4,18,518,91,-167,7,-1,24,204,18,5,10,0,27,131,-2,-43,9,-4,25,-184,-24,-111,8,1,23,-349,-35,-30,6,0,24,-326,-39,184,5,5,18,-171,-18,-25,6,-1,15,-156,-11,56,5,0,14,-201,-7,64,4,2,10,-95,9,15,3,0,8,-112,0,89,2,0,5,-68,3,-53,1,-1,3,-97,3,138,2,1,2,-16,-4,-60,0,-4,-1,-74,-2,53,0,1,0,-73,3,41,0,-2,0,-7,-2,-14,0,1,0,-44,-8,56,0,0,0,38,-3,-45,0,1,0,-31,-1,47,0,1,0,53,-15,-40,-1,0,-1,-17,-3,33,tilt right
-41,-44,-145,-5603,-12,1609,-34,23,-82,-1742,-195,469,-14,-34,-66,-473,-256,229,-26,-2,-65,-308,-183,156,-14,-4,-53,-75,-55,513,-10,5,-24,1211,23,-423,-4,-10,-16,1023,136,-310,-5,20,-2,900,251,-245,8,-4,14,912,279,-363,8,-1,29,535,153,-245,12,3,32,234,42,-102,14,-5,35,-79,-10,-16,13,2,32,-476,-92,-60,13,7,30,-518,-130,197,7,5,20,-399,-94,156,7,2,18,-279,-55,95,5,8,11,-241,-45,129,1,1,7,-116,-5,34,0,0,4,-151,0,101,0,1,1,-38,-2,22,0,-2,0,-38,0,70,0,0,-1,-4,-4,-36,0,-3,-2,-25,1,63,0,1,-1,15,-2,-48,0,0,-1,-16,0,9,0,0,0,-4,-12,0,0,0,0,7,-1,4,0,1,1,-2,-1,-18,0,-1,0,0,6,6,0,0,0,0,-5,23,tilt right
-20,-123,-103,-4948,204,2017,-18,-5,-65,-3223,-117,846,-27,4,-68,-337,-171,181,-16,-18,-48,-285,-152,122,-16,-7,-51,-61,-50,502,-13,19,-26,1065,-31,-236,-10,1,-17,1573,75,-598,0,-6,3,644,167,-154,0,8,6,762,191,-309,8,3,27,578,89,-209,10,1,25,195,21,-84,12,2,30,-62,-15,-2,10,1,26,-261,-53,-39,9,6,25,-410,-71,23,6,4,21,-368,-40,172,5,2,17,-200,-39,67,4,-1,13,-217,-8,47,4,3,11,-133,-4,67,3,0,7,-119,3,5,1,1,3,-134,1,37,1,1,3,-69,9,122,0,0,0,-8,-2,-30,0,-2,-1,-42,-4,39,0,0,0,-10,2,-14,0,-1,-1,-8,2,21,0,0,0,-24,1,-4,-1,0,0,19,1,-10,0,0,0,-16,9,16,0,0,0,7,-3,-20,0,0,0,-12,0,31,tilt right
-48,-49,-155,-4885,112,1559,-37,30,-82,-1147,-90,414,-24,-34,-66,-376,-112,135,-20,-13,-57,-150,-95,30,-14,-10,-46,-39,-17,465,-6,3,-14,1038,-3,-392,-3,-10,-10,718,63,-238,0,16,1,604,125,-189,4,10,12,627,138,-127,4,7,18,611,77,-166,6,1,23,358,17,-103,12,-4,31,89,8,-48,11,0,29,-122,-44,-18,9,-3,27,-348,-65,-47,7,-3,25,-590,-54,174,8,7,22,-397,-32,89,3,2,12,-370,-30,113,2,5,10,-241,-8,34,1,3,5,-167,5,158,1,7,1,33,-7,-25,-1,-3,0,-28,-2,56,1,1,-1,37,-9,-27,0,-3,-1,-4,-4,30,0,1,0,11,-4,-10,0,-2,0,-7,-1,1,1,2,0,11,-7,-5,0,-2,0,-4,5,0,0,1,0,-5,-2,-7,0,-1,0,3,5,-2,0,0,0,6,3,8,tilt right
-40,-76,-135,-5202,1,1534,-24,14,-76,-1503,-158,429,-20,-37,-64,-464,-202,211,-19,-10,-50,-255,-144,99,-13,-6,-48,-33,-30,447,-8,9,-19,1102,14,-435,-6,-5,-10,898,91,-242,0,14,1,695,179,-207,6,7,9,640,184,-240,5,2,21,467,85,-155,9,-1,25,220,18,-44,13,1,28,50,-2,-46,8,0,27,-113,-47,-7,9,1,26,-240,-77,-3,7,-1,25,-287,-56,171,8,0,22,-330,-17,53,5,0,16,-352,-9,93,5,4,12,-342,5,118,2,1,8,-197,17,15,1,3,2,-158,5,143,0,6,1,32,-12,-38,-1,-3,-2,-5,-18,49,0,1,0,12,-11,-28,0,-1,-2,5,-7,6,0,1,0,-12,-5,21,0,-1,-1,15,-3,-21,0,1,0,-4,-4,10,0,0,-1,19,-6,-26,0,-1,0,-13,-2,11,0,0,0,19,4,-17,tilt right
-65,23,-146,-4837,-132,1422,-35,3,-84,-619,-125,231,-25,-19,-57,-353,-167,61,-19,-6,-57,-123,-108,32,-14,-3,-46,-9,-49,498,-5,-3,-15,1116,37,-438,-4,-1,-7,606,89,-178,1,6,0,677,148,-148,4,-1,16,561,128,-123,5,-2,23,308,83,-126,11,0,29,232,2,-65,12,-2,28,-40,-38,-103,9,4,29,-210,-59,-73,8,2,27,-290,-44,135,8,3,24,-279,-37,16,7,0,18,-314,-3,71,6,1,17,-273,0,64,5,0,10,-205,5,57,4,2,6,-141,0,108,2,0,5,-41,1,15,0,-2,2,-55,-19,48,0,0,0,-60,-1,41,0,0,0,-42,4,11,0,0,0,-50,1,55,0,0,-1,37,-1,-14,0,-1,0,-25,9,20,1,0,0,27,-5,-36,0,-1,0,-22,2,39,0,0,0,20,1,-39,0,0,0,-27,-2,33,tilt right
-51,-53,-152,-5624,146,1712,-32,39,-81,-1409,-36,404,-19,-30,-65,-277,-101,58,-21,-7,-55,-139,-130,-5,-14,-4,-49,-15,-30,500,-4,8,-17,1157,-28,-411,-4,-18,-15,628,27,-243,-6,20,-4,385,75,-73,2,5,2,465,138,-64,2,5,13,407,85,-58,3,1,17,462,33,-53,6,-2,20,219,14,-53,9,0,25,68,0,-44,7,1,27,-79,-24,-44,5,-3,24,-214,-51,-92,5,1,24,-350,-26,113,6,4,21,-140,-18,-17,4,-4,14,-311,-3,-31,5,4,13,-216,-1,73,4,2,6,-169,7,46,4,2,4,-151,-3,-23,3,3,2,-86,-10,125,1,3,1,29,0,-21,1,-2,0,-32,0,45,1,1,1,5,-6,55,1,-1,0,25,5,-24,1,-2,0,-30,10,50,1,1,1,-1,-5,-6,0,-1,1,-2,-8,9,1,0,0,-10,-5,16,tilt right
-58,44,-138,-5659,23,1792,-34,22,-89,-544,-30,248,-22,-32,-62,-367,-147,148,-22,-9,-57,-110,-85,20,-16,-6,-45,-28,-2,629,-8,-10,-20,1217,41,-616,-7,-8,-6,464,49,-60,-4,16,0,591,142,-200,1,2,13,443,113,-72,3,6,17,477,34,-135,8,-3,24,261,-17,-88,11,-1,25,118,-27,-86,8,-1,25,-15,-44,-81,9,1,25,-169,-51,-74,7,-2,25,-290,-19,48,6,2,22,-342,-16,65,7,5,20,-211,5,-31,7,0,14,-311,13,128,7,6,12,-70,19,-49,6,-1,8,-51,-4,158,7,4,8,40,-15,-77,3,-7,4,-53,-12,123,3,-1,4,-142,-11,64,1,-1,3,-89,-14,39,0,-1,0,-154,1,142,0,1,0,-44,6,-83,0,-2,-3,-90,0,181,1,6,0,126,-12,-149,-2,-7,-4,3,9,42,0,3,0,17,-2,-28,tilt right
-36,-47,-144,-6154,144,2111,-33,49,-85,-2414,-72,619,-20,-5,-76,-174,-79,47,-18,-12,-58,-164,-109,11,-18,-6,-53,1,-41,581,-6,6,-22,1279,-35,-397,-2,-22,-16,1094,51,-476,-4,8,0,449,44,-62,-2,12,2,528,112,-70,5,7,17,434,70,-87,2,1,18,389,22,-100,6,0,22,150,-14,-45,8,-1,22,-56,4,16,10,0,26,-97,-27,-108,6,3,22,-104,-40,-84,6,-1,21,-276,-23,109,6,5,21,-166,-15,30,5,-3,15,-202,-2,25,3,0,13,-288,0,34,3,0,8,-282,9,134,2,4,6,-141,4,80,1,0,1,-48,1,2,0,0,0,-65,-3,97,0,0,0,42,0,-35,0,-2,-2,-50,0,41,0,2,0,22,-4,-29,-1,-2,-1,-25,2,37,0,2,0,20,-2,-60,0,0,0,-8,-3,46,0,1,1,38,1,-27,tilt right
-40,-33,-152,-4870,-80,1331,-32,22,-86,-1385,-118,387,-21,-18,-68,-339,-126,141,-20,-12,-57,-144,-97,67,-15,-11,-46,-56,-43,398,-7,-4,-18,997,7,-321,-1,-21,-13,616,56,-206,-2,0,-4,330,83,-103,2,2,4,402,89,-122,2,8,7,426,81,-152,5,12,15,534,57,-149,7,7,21,430,26,-99,10,10,26,208,1,-91,10,7,28,38,7,20,12,3,32,-78,-33,-101,10,-4,29,-307,-47,26,9,0,25,-335,-38,184,7,-2,21,-263,3,20,6,-4,16,-315,-13,89,3,-2,12,-288,0,63,2,-1,8,-260,4,101,1,4,6,-157,2,70,0,0,1,-89,-11,59,0,3,1,0,-14,5,0,-1,-1,-8,-3,33,0,3,0,20,-13,0,0,-3,-2,-9,-4,1,0,2,0,18,-4,-23,0,-2,-1,-11,5,19,0,1,0,1,-8,-20,tilt right
-34,-14,-157,-6732,85,2209,-33,55,-89,-1662,-4,394,-24,-19,-76,-316,-67,75,-19,-7,-61,-143,-81,46,-16,-10,-48,-58,-18,759,-8,-5,-19,1368,-4,-652,-1,-27,-13,736,26,-300,-1,13,0,428,52,-73,-1,6,6,489,90,-24,4,13,13,635,34,-265,5,1,19,472,2,-154,10,7,27,313,-38,-49,12,-2,28,38,-14,1,14,2,30,-159,-37,-104,10,-3,25,-370,-25,24,8,6,25,-392,-24,146,4,0,18,-250,17,88,4,-2,15,-216,6,99,4,-1,12,-136,12,-1,1,-4,9,-176,21,113,3,0,8,-70,10,-30,2,-3,4,-73,-5,89,2,1,4,-95,-1,5,1,-2,1,-54,-3,40,1,1,0,-79,-7,51,0,0,0,-18,5,-35,0,0,0,-88,11,106,0,2,0,48,4,-95,-2,-1,-1,-45,10,88,0,3,0,60,-3,-71,tilt right
-47,-36,-155,-4259,86,1337,-29,-3,-98,-2088,-3,490,-26,4,-75,-297,-34,75,-22,-12,-60,-183,-40,15,-19,-7,-53,-51,-16,325,-9,3,-19,890,-21,-207,-5,3,-8,1032,-3,-312,-2,0,-1,525,38,-53,3,6,7,470,63,-66,5,6,17,461,40,-102,7,0,22,340,10,-76,7,-3,21,93,8,-81,10,-2,28,-115,-19,-65,7,2,23,-186,-30,-55,8,1,24,-329,-15,4,6,5,18,-310,4,56,5,1,16,-260,1,102,4,2,10,-160,8,48,3,0,9,-122,-1,73,2,1,5,-72,-8,17,1,0,2,-81,-15,72,1,1,2,-21,-2,-9,0,-1,0,-83,-3,51,0,1,0,-6,4,-11,0,-2,0,-26,0,47,0,1,0,7,9,-25,0,-1,0,-9,-5,24,0,0,0,2,6,-35,0,-1,0,-12,-3,19,0,2,0,4,-2,-8,tilt right
-57,-54,-140,-4571,87,1574,-40,12,-76,-1629,-30,493,-28,-18,-62,-250,-37,71,-19,-9,-53,-102,-32,15,-18,-5,-45,40,3,433,-6,10,-12,1104,-11,-291,-1,-7,-7,1040,12,-368,3,8,7,629,31,-174,4,-1,16,508,36,-157,8,0,23,222,7,-73,9,-1,26,29,-1,-62,11,4,25,-101,0,-112,10,1,22,-240,-15,-110,8,6,22,-252,-10,128,9,2,19,-181,-10,46,8,1,14,-189,-1,45,7,0,14,-230,3,87,4,-2,9,-228,11,115,4,2,7,-154,-2,97,1,0,4,-46,0,72,1,-2,1,-41,-1,14,0,-2,0,-16,-5,43,0,0,0,-17,0,21,0,0,0,-1,4,-26,1,-1,0,-30,1,65,0,1,0,15,-3,-49,0,0,0,-28,1,42,0,1,0,2,0,-23,0,-1,0,-9,1,10,0,1,0,-2,0,-25,tilt right
-56,-27,-157,-5235,137,1449,-36,35,-78,-962,-62,239,-26,-25,-74,-297,-45,32,-19,-6,-55,-75,-63,-22,-14,-9,-48,-26,-24,484,-4,4,-13,1119,-27,-419,-2,-13,-11,627,33,-168,1,17,5,528,32,-114,1,4,8,467,77,-37,5,9,20,431,41,-89,6,-1,20,296,9,-108,10,-1,25,26,-7,5,7,-1,25,-90,-4,-80,9,-1,26,-219,-23,5,4,-1,20,-274,-21,12,6,2,20,-304,-8,100,4,2,15,-211,8,5,5,-1,12,-226,11,72,3,3,8,-166,5,18,3,1,6,-129,5,77,1,2,3,-58,0,20,1,-1,1,-52,-8,34,1,1,0,-41,-11,41,0,0,-1,-11,-8,22,0,0,0,-9,3,10,0,0,0,5,-3,20,0,0,0,-6,0,13,0,0,0,13,0,-30,0,0,0,-7,-1,41,0,0,0,15,-6,-20,tilt right
-33,-65,-146,-5814,157,1771,-37,50,-73,-1475,13,366,-26,-21,-63,-260,-64,20,-14,-3,-55,-100,-63,-3,-13,-9,-41,-43,-26,557,-6,7,-16,1173,-30,-442,2,-26,-12,598,-9,-270,2,7,-3,205,39,-26,-1,0,3,205,51,1,1,13,1,419,34,-58,1,4,12,443,20,-67,4,3,16,475,15,-138,6,-1,22,279,0,-71,7,4,25,68,-5,-40,10,0,30,-98,-10,-58,9,0,25,-262,-27,-113,7,2,23,-375,-14,149,5,7,18,-249,2,112,4,-2,15,-206,16,5,2,-1,10,-276,12,93,2,1,8,-197,10,100,1,1,2,-112,9,16,1,1,1,-52,7,54,0,1,0,5,-7,-9,1,0,0,17,-8,8,0,0,0,13,2,-9,0,0,1,-3,6,-8,0,-2,0,-19,-13,29,0,0,0,-8,-4,-7,0,0,0,-21,5,0,tilt right
