AccX1,AccY1,AccZ1,GyrX1,GyrY1,GyrZ1,AccX2,AccY2,AccZ2,GyrX2,GyrY2,GyrZ2,AccX3,AccY3,AccZ3,GyrX3,GyrY3,GyrZ3,AccX4,AccY4,AccZ4,GyrX4,GyrY4,GyrZ4,AccX5,AccY5,AccZ5,GyrX5,GyrY5,GyrZ5,AccX6,AccY6,AccZ6,GyrX6,GyrY6,GyrZ6,AccX7,AccY7,AccZ7,GyrX7,GyrY7,GyrZ7,AccX8,AccY8,AccZ8,GyrX8,GyrY8,GyrZ8,AccX9,AccY9,AccZ9,GyrX9,GyrY9,GyrZ9,AccX10,AccY10,AccZ10,GyrX10,GyrY10,GyrZ10,AccX11,AccY11,AccZ11,GyrX11,GyrY11,GyrZ11,AccX12,AccY12,AccZ12,GyrX12,GyrY12,GyrZ12,AccX13,AccY13,AccZ13,GyrX13,GyrY13,GyrZ13,AccX14,AccY14,AccZ14,GyrX14,GyrY14,GyrZ14,AccX15,AccY15,AccZ15,GyrX15,GyrY15,GyrZ15,AccX16,AccY16,AccZ16,GyrX16,GyrY16,GyrZ16,AccX17,AccY17,AccZ17,GyrX17,GyrY17,GyrZ17,AccX18,AccY18,AccZ18,GyrX18,GyrY18,GyrZ18,AccX19,AccY19,AccZ19,GyrX19,GyrY19,GyrZ19,AccX20,AccY20,AccZ20,GyrX20,GyrY20,GyrZ20,AccX21,AccY21,AccZ21,GyrX21,GyrY21,GyrZ21,AccX22,AccY22,AccZ22,GyrX22,GyrY22,GyrZ22,AccX23,AccY23,AccZ23,GyrX23,GyrY23,GyrZ23,AccX24,AccY24,AccZ24,GyrX24,GyrY24,GyrZ24,AccX25,AccY25,AccZ25,GyrX25,GyrY25,GyrZ25,AccX26,AccY26,AccZ26,GyrX26,GyrY26,GyrZ26,AccX27,AccY27,AccZ27,GyrX27,GyrY27,GyrZ27,AccX28,AccY28,AccZ28,GyrX28,GyrY28,GyrZ28,AccX29,AccY29,AccZ29,GyrX29,GyrY29,GyrZ29,AccX30,AccY30,AccZ30,GyrX30,GyrY30,GyrZ30,Label
123,-51,91,-196,622,236,16,21,60,622,-220,-106,-4,-26,17,-476,-205,-190,-15,7,-41,-134,-140,-70,8,12,-25,11,143,-24,-5,31,-38,17,-17,111,-20,14,-40,-10,-386,-24,-34,6,-31,475,57,-70,-8,10,-4,-408,-264,270,-29,-5,-41,869,218,-545,10,19,3,-590,161,367,-19,-11,-23,-147,183,96,-1,7,3,191,32,-93,0,-5,0,16,248,103,14,-13,37,252,-56,-273,5,-5,15,-327,49,212,2,-23,26,-12,-44,58,5,-2,3,76,-72,-211,3,14,2,-161,-102,171,2,-2,-3,79,89,-76,0,7,-2,-11,-108,20,-4,-4,-7,3,127,110,-3,-15,-1,-52,-75,-78,-1,15,6,89,35,-119,-1,-1,0,-74,-11,111,7,-3,5,50,-22,-108,0,13,-5,-42,-27,113,-5,-6,1,-12,74,17,1,-2,-7,51,-21,-38,5,-1,9,-56,-76,-11,down
100,-63,119,343,342,163,-11,-16,42,-607,-239,-89,-19,12,-19,-93,-162,-183,0,28,-38,-98,-106,15,-1,14,-34,235,0,-38,-14,21,-36,-345,-244,100,-31,12,-45,553,-16,-88,-5,21,-10,-110,-21,207,-6,4,-29,151,73,8,-17,5,-6,97,14,-157,-4,0,-3,3,133,97,-14,-5,-4,-10,-78,-89,-18,0,-5,68,170,-33,-6,3,2,-168,-50,43,1,1,16,180,323,56,9,-23,23,-112,74,62,12,-7,25,18,24,-10,2,5,1,110,-53,-64,11,-9,16,-116,-13,76,5,-3,-2,13,-97,-62,-2,-5,-5,-109,47,32,-2,8,-11,47,-27,-77,-1,4,2,32,20,25,1,-6,0,-49,-22,-42,-5,9,-1,-35,-45,45,-1,2,-8,123,65,18,1,-5,6,-82,-28,19,0,-4,5,26,12,-48,2,-1,2,-51,3,-10,4,9,-1,21,19,-5,down
95,-69,102,465,116,372,1,-22,37,-442,235,-122,2,2,1,-202,-100,-148,-18,15,-32,-79,-420,-183,1,8,-21,-137,133,-21,-2,28,-15,-158,-73,-16,-24,32,-48,325,-158,-12,5,5,-23,419,-242,-118,-30,12,-33,-269,23,158,-9,-8,-5,108,182,155,0,0,-13,7,-48,-62,-5,12,-2,-179,-22,148,-18,7,-13,101,105,5,-13,-10,-8,369,-6,-256,-9,1,6,-213,171,125,-1,-7,14,-81,-6,94,2,-10,16,46,103,-70,18,-3,12,-88,-1,25,4,-8,13,19,106,5,5,-3,19,-59,-114,-38,0,5,-4,57,10,-79,6,9,2,-42,-59,15,0,-5,-8,-13,37,54,-4,5,-5,34,37,8,0,1,5,-29,-82,-38,-4,-1,-5,90,51,135,1,-4,9,38,-27,-90,5,-2,-6,-22,-10,-53,-2,1,0,-82,-21,8,-4,1,-4,22,3,6,down
72,-71,118,104,375,179,1,6,16,-440,-4,-107,4,8,4,16,-313,-70,-4,10,-28,116,-11,-113,12,14,-18,-222,-117,-42,-19,27,-55,182,-31,105,7,21,-16,7,-357,19,-41,1,-49,66,148,105,-10,5,-3,6,-47,29,-16,3,-23,245,300,-87,10,11,14,-128,-18,195,-2,-9,1,249,-266,-247,-10,4,-6,-42,5,-10,-7,1,5,-205,153,185,-15,-5,-10,85,10,-218,-12,2,7,18,318,100,11,-14,14,94,74,14,20,-11,20,-105,-57,0,10,3,9,-22,45,-17,6,3,7,-29,-153,-11,-2,-1,5,15,74,89,1,-5,-1,38,-89,-130,-2,8,-5,-52,70,85,-2,-6,2,27,-53,-77,1,13,-9,5,41,59,1,-14,4,-50,-34,47,-2,5,-2,17,-39,-78,2,5,-2,-7,84,-14,4,-4,9,13,-49,60,1,2,-5,48,15,-88,down
125,-36,94,-97,460,228,16,-8,28,83,-91,-187,5,2,28,-341,-383,94,-54,6,-46,86,-488,-18,-13,-8,-34,-20,54,-130,17,37,-6,-161,104,84,-16,5,-26,369,-139,-49,-22,10,-33,-208,-68,108,-26,-5,-29,208,45,-47,-20,19,-14,65,115,177,-7,5,11,-152,-71,40,-7,-8,-23,170,312,-43,1,7,27,183,-209,-214,-6,-1,-23,69,-151,-170,-14,1,4,-163,161,147,-6,1,-17,-52,40,-45,-11,2,7,29,198,81,10,-17,8,-37,105,3,7,-4,29,-14,92,30,6,-10,5,42,41,-9,6,0,26,-14,-36,82,10,-9,-9,57,-62,-159,-5,9,0,-151,-101,94,-4,0,-16,72,70,-105,4,-6,12,-89,-45,99,0,8,-7,24,124,6,3,-7,12,-94,-151,-5,1,5,-6,102,113,-87,-1,0,2,-83,-117,82,-6,9,-11,70,111,-27,down
81,-19,131,271,451,49,-2,-28,47,-239,-264,-13,-10,6,3,-160,-320,-14,-10,8,-9,-275,32,22,-12,-8,-51,502,-184,-40,5,11,-37,-262,473,69,12,23,5,-2,-270,20,3,3,-23,-237,-174,104,-15,3,-51,696,211,-146,-17,15,3,-733,-718,254,-20,3,-54,732,145,-245,-19,19,-7,-373,-186,25,-15,-3,-23,328,415,-191,-5,7,27,-74,-197,254,-17,-23,-26,-178,368,-56,0,3,15,85,-49,-131,-12,-14,2,59,214,-1,12,0,25,-52,65,96,13,-5,19,28,75,-80,14,-6,11,-130,26,17,1,-3,3,163,153,10,15,-9,13,-132,-290,9,0,10,-10,30,-23,-181,-6,7,2,-151,-39,167,2,-5,1,112,49,-47,-11,4,-5,29,-39,14,-1,1,0,-31,87,44,5,-2,-2,-24,-25,-56,2,5,-2,9,93,109,0,-6,3,54,-119,-68,down
91,-39,125,-79,921,372,21,-8,64,283,-736,-299,-21,4,-41,-551,-146,12,-19,6,-44,429,-316,-94,-4,-4,-28,-287,201,-46,1,28,-20,-49,-195,-36,-7,21,-24,-45,60,138,-3,-1,-23,219,-93,23,-15,15,-21,-24,-247,36,-27,-5,-18,8,106,74,-4,2,-9,270,-64,-142,-7,8,4,-206,128,17,-10,-1,-10,78,-137,-29,-18,6,-6,-53,-54,-60,-18,-1,-11,-68,238,68,-5,7,11,88,151,81,-15,-14,2,-14,108,31,12,-10,28,-205,-142,112,5,-11,-1,349,508,-296,20,-4,33,-225,-128,138,10,5,8,176,49,-214,9,6,1,-143,-143,99,0,-2,-4,31,-22,24,-3,7,-8,-21,-116,-51,-5,-1,-8,43,82,91,3,-9,0,-11,5,-42,1,-1,6,1,13,50,-5,4,-2,62,-117,-89,4,-4,2,-55,102,49,2,5,-1,-55,-88,14,down
93,-33,120,-29,916,256,2,-10,51,-72,-729,-46,-17,-8,-11,-188,379,-106,4,13,-9,132,-728,-164,-12,-9,-67,189,157,-89,9,18,-17,-158,-280,-27,-26,17,-40,-60,400,126,0,11,-12,-283,-16,145,-7,16,-26,490,129,6,-14,-6,-25,-84,-307,43,-7,10,-6,136,-130,-7,1,-1,-3,-106,-145,15,-5,3,2,203,65,-180,-9,2,-6,-279,-81,80,-10,3,-11,269,434,-98,-3,6,7,-191,-192,163,-5,-8,-7,149,317,-92,16,-4,28,-20,-119,25,8,-16,12,114,227,-27,9,-1,19,-235,-265,4,-8,2,-5,99,132,-63,8,-4,10,-117,-53,69,6,5,-5,180,-37,-136,-2,2,-1,-139,-75,77,-2,0,-6,73,152,-59,-3,0,1,-3,-145,80,-4,-7,-4,-27,129,-11,10,1,6,-67,-96,5,-1,0,0,35,32,-42,2,6,-7,32,38,69,down
43,-7,157,-324,305,224,-3,4,-1,434,-230,-108,-2,-24,3,-25,-376,-184,-7,-8,-56,315,-73,20,8,-13,0,-383,11,-119,-14,31,-53,238,488,-27,23,7,9,-608,-389,139,-35,8,-65,285,297,116,4,12,17,-356,-295,220,-34,-13,-40,465,22,-104,2,14,-11,-156,-338,-53,-7,1,-16,140,417,-100,-6,15,18,161,-273,122,-17,-20,-22,88,93,-334,-5,3,8,-314,46,133,-5,-10,-2,66,376,52,16,2,25,-57,-34,79,16,-5,10,126,98,-92,14,-6,26,-88,-62,39,1,-1,4,-34,-73,-57,3,4,3,44,-48,-17,-3,-3,-5,-36,-49,2,-6,-1,3,11,-3,15,1,1,-2,2,-34,-62,3,-1,0,-63,74,23,0,3,-1,-75,-164,11,-9,6,-18,133,143,23,2,-7,12,-10,34,-6,3,-5,5,-66,-4,2,4,9,4,70,7,-60,down
-88,-8,-130,-192,20,-315,22,18,63,-23,477,60,43,-15,30,594,-214,-201,40,8,79,-738,-534,259,-5,-3,17,505,374,17,52,-12,79,-77,98,442,-36,-13,20,-452,252,13,-1,8,42,343,-561,-71,-12,-9,-52,-257,-126,-88,-8,-17,-46,513,10,-17,1,20,-37,-552,192,-64,1,22,-33,544,23,10,6,19,-27,-517,-141,184,-17,2,-24,388,373,138,-1,-5,4,-200,-434,71,-6,-5,-20,564,42,-296,-10,9,4,-430,-183,139,-8,-12,-32,217,310,-51,-15,6,9,-124,-468,-67,2,-4,-27,145,188,-278,1,16,21,-236,111,202,5,-21,8,85,188,-54,0,0,37,-111,-77,122,2,-15,-5,102,229,-66,3,1,26,-143,-184,63,13,-3,-10,125,77,-140,0,0,13,-171,-33,104,-3,4,-6,31,-75,-144,-3,8,-2,31,39,57,3,-8,-2,-27,30,16,down
77,-34,145,377,380,-38,-23,1,-6,-778,188,267,14,-9,22,267,-257,-111,-10,1,-9,-12,-78,-27,-2,-7,-39,291,-480,-34,7,17,-32,-437,164,-25,-5,17,-28,522,-64,-15,0,22,-22,-419,68,149,-13,4,-33,309,40,-24,-8,0,-7,-296,-70,172,-15,-4,-20,240,-333,-95,-13,5,-4,-38,139,-45,-12,3,-12,-12,119,-55,-12,5,13,-13,-2,137,10,-8,-12,112,-212,-333,4,28,6,57,92,80,-8,-19,-10,-320,-3,204,-5,-2,0,447,125,-374,7,7,14,-208,-65,200,-5,-14,4,79,244,-17,4,-7,8,-82,32,53,-2,0,12,17,112,-6,-1,0,12,-61,-98,31,11,-1,1,95,40,-99,8,-1,14,-112,-104,45,0,1,-7,54,-4,-61,-5,1,-4,-68,-116,-22,1,5,-10,18,66,58,-9,-6,-6,-10,-26,2,2,2,4,29,91,-22,down
131,-29,85,434,429,-13,-9,-32,76,-553,270,238,-26,10,36,-29,-242,-132,-15,16,-6,-413,-451,63,-23,3,-47,511,-565,-66,4,11,-58,-155,321,-178,15,24,-22,2,-114,62,-8,18,-47,302,509,179,-30,-12,-14,-340,-364,39,-18,-6,-30,380,159,-178,6,10,6,-523,-180,385,-11,-2,3,519,-3,-396,1,12,2,-243,-181,207,-1,-3,-1,129,-32,-117,-7,11,-8,15,43,65,-17,-2,-12,-63,-31,39,-4,2,-15,155,26,-179,-14,-2,-1,-91,165,70,1,-6,14,67,184,-51,7,-2,17,-11,31,6,3,-13,14,-26,155,16,4,-1,17,-88,-93,46,3,0,1,76,55,-74,8,0,1,-36,-58,-19,-1,9,1,48,14,-9,2,-4,3,-38,-39,34,-2,2,-6,-38,-1,23,-1,-5,3,13,-36,-35,2,8,-4,34,38,5,0,-9,1,-12,-49,-28,down
70,-42,138,130,363,67,12,14,13,-395,-135,65,3,5,-7,196,-251,25,-19,-16,-51,-54,-67,-32,-6,18,-25,-187,141,34,-13,10,-22,310,-159,-60,-1,17,-28,-419,143,168,-11,-7,-21,514,-160,-7,-16,9,-20,-26,-288,-47,-6,-4,-16,-67,151,-32,8,7,11,-88,-133,-21,-12,-4,-21,169,122,-121,-8,13,12,-148,-78,39,-8,-6,-21,75,69,-85,-13,11,10,-64,-26,33,-2,-11,-14,5,123,-48,3,7,22,49,145,50,10,-14,8,34,161,-15,-1,1,28,-94,-14,82,5,-7,4,49,46,-88,-1,5,8,-79,-19,58,10,-3,2,99,-63,-93,0,7,-3,-88,-9,47,1,-4,-8,57,-50,-86,-4,3,-2,-33,21,133,1,-4,1,83,-4,-139,0,3,2,-33,39,132,-2,-9,-1,21,-25,-75,-1,5,5,-20,-7,23,0,1,-3,-18,-56,-14,down
100,-25,139,220,916,-4,12,12,54,-515,-737,172,-25,8,-45,199,-350,52,-16,-37,-47,222,-236,-160,-5,6,-32,-24,111,-111,-8,25,-30,-153,-11,118,-4,-4,-16,68,212,-4,-18,12,-30,-79,68,128,-6,12,-9,-182,76,237,-11,-8,-8,232,58,44,9,6,6,59,-360,-164,-8,2,-22,216,-141,-135,-3,3,5,-120,-132,-143,-7,-3,-11,28,-28,-27,-21,4,-8,-238,50,-70,-11,4,-19,151,161,31,-19,-4,13,-131,328,94,12,-7,13,230,213,45,6,-12,38,-68,18,73,10,-22,-1,-21,77,-94,4,10,17,13,-198,-110,9,3,0,-49,-34,-13,0,8,-5,-31,-23,36,-7,-6,-3,-72,47,37,5,1,1,72,-30,-91,3,0,-1,-104,3,45,-5,2,-3,65,-104,39,-3,-2,-2,22,73,-45,0,-1,5,-26,-24,48,5,-1,-4,43,28,-86,down
-65,23,-139,246,51,-175,11,-10,19,-741,303,-7,58,44,49,1008,194,262,42,-42,70,-785,-68,-187,39,14,91,-261,482,255,5,-28,69,696,-332,44,-3,-19,3,-321,-176,-67,-4,15,17,-111,-201,7,-2,9,-43,163,-485,67,-16,-14,-41,34,-153,-98,-3,10,-31,91,456,-95,2,13,-9,-327,-72,58,-4,12,-47,508,244,26,4,17,4,-711,-210,346,-11,-25,-28,1149,-240,-404,-9,18,-4,-641,-195,220,-18,-20,-20,110,57,-27,-7,4,-3,205,-173,-212,-12,3,-19,-344,60,-79,-21,12,-8,49,-35,183,-11,-8,1,-90,199,51,0,-3,10,152,208,-34,4,-7,17,-109,223,140,18,-15,27,49,6,-102,7,4,17,-8,68,-59,8,-4,7,-38,-48,-37,3,8,6,-47,-121,2,3,3,-6,60,-29,-24,-8,-3,-4,22,-33,36,0,3,2,-8,3,22,down
53,4,148,-288,860,17,1,-10,27,374,-503,-80,-14,-2,-32,-188,-494,119,17,-1,-23,-76,-78,-101,1,15,-48,132,-66,14,-7,5,-49,-60,38,32,-9,16,-37,35,206,233,-22,-15,-19,-131,-20,48,-13,7,-4,522,-143,-80,-10,-6,-5,-380,-228,-39,-1,2,-9,402,50,-133,-3,2,8,-331,-46,22,-19,-4,-24,158,39,-184,-12,16,3,-178,48,122,0,-9,-7,-9,264,-37,-4,1,17,16,119,71,7,-13,14,-19,188,26,7,4,28,-9,-46,71,12,-11,7,79,24,-141,8,1,24,-82,-186,-39,2,-3,-16,-15,14,-6,-4,4,3,-5,-62,39,-2,12,-7,86,-24,-31,-2,-8,2,-91,56,55,3,-10,-5,12,32,-32,-1,3,7,5,-87,-50,-6,5,1,-62,-119,87,6,-5,-11,110,176,-93,-6,9,6,-74,-62,9,1,-4,-2,35,16,-7,down
-67,3,-144,-134,192,-442,34,10,24,272,391,96,117,-18,129,473,-190,-103,39,-13,107,-1069,393,671,-14,7,83,809,-189,-69,-39,-24,-39,-557,-44,-48,-5,15,-19,28,-209,76,-7,-2,-35,59,-266,-130,11,6,-17,168,-226,-43,7,6,-2,17,-79,29,-7,-10,-39,-24,95,-3,0,35,-38,-253,275,275,4,-17,-4,895,-286,-46,-33,0,-22,-966,100,228,-10,-15,-6,496,-146,-244,-8,10,-11,187,-202,-155,-13,-3,-19,-523,256,169,2,11,14,58,-151,-75,-7,2,-15,-46,-62,24,-21,-5,-8,83,69,-98,4,4,3,76,-2,-214,0,6,5,45,295,42,8,-4,18,-105,30,113,7,-6,16,106,166,-37,2,-5,14,-48,-101,82,3,-5,9,26,88,-47,3,1,4,-52,-121,9,0,4,-4,77,14,-82,5,2,2,-98,-75,80,-1,-6,-6,-28,44,-2,down
88,-2,149,323,436,122,-18,-31,8,-457,16,68,-22,8,-35,52,-626,-92,3,6,-57,57,160,-110,16,26,-11,-214,-17,-36,6,2,-15,195,225,176,-20,-10,-15,130,-133,-143,11,20,-11,-248,53,152,0,-6,-28,202,-194,167,-19,19,-2,-213,93,-50,4,-17,-17,353,-175,156,-19,4,10,261,-284,-325,-2,-10,-20,14,-92,2,-10,10,4,-129,-6,-180,-5,-1,-16,-270,-46,80,-24,1,-7,-102,196,-33,-6,4,0,122,-11,-18,-9,-3,1,18,299,63,-1,-6,16,21,177,157,8,-18,19,68,216,-64,16,-4,24,-117,-38,7,12,-1,6,18,-78,-133,5,1,2,-84,-23,2,6,5,0,14,-105,-38,-2,6,-4,97,-27,34,-4,-5,-2,-107,-32,-22,-4,1,-6,44,9,29,-2,-4,3,-38,19,14,3,4,0,29,-34,-25,2,-2,-3,-19,32,25,down
65,-28,146,-239,186,9,-19,-2,-41,117,-445,28,-14,-8,-32,123,-53,-65,15,18,-31,-182,244,-97,10,14,-4,-25,-9,123,-3,7,-31,288,308,121,2,1,7,-321,-43,178,-12,-3,-29,513,-161,-28,-15,12,1,-500,-162,165,-25,-13,-14,335,-110,-225,13,16,12,-82,-112,-31,-3,-10,-8,96,-89,-202,-4,2,-20,510,254,-317,-5,11,19,-705,-143,226,-14,-14,-34,190,-65,-99,-10,14,12,-213,91,204,0,-14,1,147,110,-7,4,1,25,-64,80,125,3,-19,5,177,158,-77,1,3,20,-172,-87,17,4,-2,-2,60,104,-58,7,6,2,-18,-74,34,-7,-2,2,-39,17,10,1,4,-3,23,-75,-67,3,-3,-4,-19,90,25,-5,4,-1,10,-38,44,-1,-2,6,-48,-38,39,4,-3,5,169,30,-133,2,3,-7,-134,2,109,-1,1,2,-9,-81,-75,down
70,-27,141,-55,460,322,-9,13,-7,80,-56,-289,1,-2,12,12,-384,16,-15,2,-66,7,-69,-20,3,1,4,-169,-209,-66,-10,16,-66,235,486,48,9,3,16,-370,-44,44,-9,7,-54,545,137,94,-1,2,14,-569,-65,204,-12,-4,-19,545,-228,-69,-5,4,-12,-259,-192,82,-8,-4,-2,111,156,-230,0,8,4,-72,-328,14,-4,8,-12,110,7,-148,-11,4,-8,-24,71,34,-4,-10,4,-14,115,-16,-8,-3,1,-39,55,32,-2,-11,6,52,252,66,9,-3,31,-74,-141,-28,4,0,0,93,204,-48,12,-8,16,-179,-22,64,1,6,3,166,-46,-118,-2,2,-10,-57,-22,-6,0,6,6,-87,-49,38,-7,-1,-14,67,-34,14,1,-8,2,-39,92,37,10,3,15,43,-88,-122,-1,4,-6,-15,79,52,-6,-2,2,-73,-105,28,4,2,-3,107,40,7,down
54,-37,144,-341,567,23,-16,27,-4,245,-469,-50,-17,-13,-49,-64,-432,59,-5,6,-36,-110,167,-96,11,16,-5,258,-65,18,6,5,-26,-227,60,45,-4,-3,-15,268,276,50,7,12,-2,-420,158,56,-16,-13,-25,555,79,40,-3,24,10,-546,-222,209,-15,-24,-17,582,46,-87,3,19,15,-235,-435,-32,-18,-15,-32,105,164,-218,13,24,15,-82,-428,-104,-23,-15,-28,94,242,48,7,2,18,-21,-125,-127,0,2,-5,17,96,41,-5,-6,16,-154,291,158,7,-7,10,207,-57,-59,-2,-4,6,-207,174,68,-5,-6,7,91,-54,-31,5,1,2,-15,41,-18,7,5,3,-6,19,20,-1,-4,0,-17,-38,8,1,4,1,-33,-45,-28,-3,-6,-4,18,-12,-25,3,3,7,-102,17,29,-6,5,-8,58,-48,30,-4,2,-3,60,59,8,11,-10,2,0,112,122,down
30,-11,167,-99,551,-109,-23,-8,9,168,-649,267,-26,-34,-48,-290,-70,-331,20,40,-47,-16,-47,-151,11,14,-24,187,290,93,1,1,-43,282,150,195,21,9,22,-1033,-49,-76,-15,-1,-49,1022,85,58,4,18,12,-880,-329,114,-18,-4,-10,789,-38,-79,8,5,6,-231,-426,94,-12,6,-26,-247,220,3,0,-10,1,415,65,-45,-13,5,7,79,-430,-182,-8,-15,-15,-57,255,-80,-3,9,-3,60,44,-113,-9,-1,6,-204,352,214,11,-7,10,148,25,-153,10,9,11,-109,-27,106,4,-6,10,-19,131,82,8,1,6,75,-168,-29,-4,-10,3,-30,40,24,3,-2,0,15,-35,-67,1,4,2,36,90,20,6,-6,2,-36,-108,-31,0,12,2,-33,33,36,-7,-10,-1,-49,-169,-31,6,12,-9,119,27,7,-11,-9,-3,-125,90,96,2,-4,9,132,24,-146,down
63,-11,147,-32,294,197,-13,-16,-16,27,-318,-16,-15,-17,-26,-100,-126,-91,14,23,-36,-175,-92,-77,-15,10,-36,301,324,97,4,-7,-8,-300,-70,-17,-5,12,-22,147,172,7,2,20,-10,-362,46,231,-2,3,-14,529,9,18,5,1,-13,-227,-183,64,-15,-3,-8,200,-47,-2,0,-6,10,26,-289,-166,2,2,2,160,-81,-296,-1,8,-11,-264,-131,126,-13,-7,-8,108,76,-94,-5,2,-3,-220,120,78,-7,-7,4,77,167,7,2,0,16,33,25,12,2,-4,4,-45,152,37,7,2,26,11,-124,-64,1,3,-2,13,75,29,3,-9,4,2,-62,-23,-3,7,-1,-78,-7,51,-2,2,-5,124,23,-62,1,2,-1,-90,-33,73,1,-5,6,81,61,-75,0,-6,1,-26,-44,-3,-1,1,-4,-49,-23,-60,1,10,-8,10,105,68,0,-7,6,10,-57,8,down
66,-16,147,-524,220,73,-32,-21,10,708,-434,-129,-26,6,-61,-370,242,207,7,-20,1,156,-340,-190,13,36,-43,-164,379,18,-4,-7,-8,272,-78,87,0,11,-20,-402,289,-10,13,0,-3,394,-186,28,5,22,-18,-215,-58,140,-23,-7,-22,22,-185,189,-4,1,-5,252,-124,-164,-13,-1,-6,211,187,-117,3,4,12,-315,-296,65,-9,-5,-17,267,148,-193,-21,-4,7,-452,-430,138,-10,-1,-22,327,130,-298,-14,21,-6,-177,80,165,-2,-12,-15,126,441,-9,4,2,32,-53,37,91,13,-17,4,104,299,-17,13,-7,38,-116,-154,25,10,4,-2,178,29,-136,-3,1,13,-258,-162,178,2,-10,-5,176,30,-175,6,2,0,-147,-88,57,-8,2,-9,34,20,-56,-5,4,-6,-18,20,54,5,-4,7,-6,34,-37,3,5,0,32,-56,-19,-5,-3,1,-18,10,35,down
33,3,153,69,620,-117,-24,2,-33,71,-228,190,7,-15,28,-402,126,-99,1,13,-28,376,-669,173,7,-32,-17,-117,54,-127,6,28,-56,-130,88,-127,12,9,-5,-401,45,123,-8,19,-54,398,-88,83,-13,9,-5,-315,137,210,-8,-4,-18,511,-130,45,-8,-2,11,227,-176,-90,-10,-9,-1,105,14,-274,5,0,-7,-124,54,0,-12,7,-3,-191,25,37,-6,-11,-19,-56,72,75,-6,0,7,98,18,-78,10,3,6,-230,13,65,6,-6,14,113,44,-91,15,-7,7,-56,-60,18,-7,5,9,13,100,23,4,-5,7,68,-31,5,4,0,7,-50,60,11,1,1,7,-23,-34,3,-1,-3,-6,0,-82,-58,-1,9,-7,66,109,-6,1,-6,7,-65,-83,0,-3,4,-8,123,71,-4,3,-2,6,-147,-124,47,-1,-4,-11,93,100,-44,-4,6,7,-90,-77,61,down
65,-7,148,308,226,-128,-4,4,17,-744,-140,110,-30,-11,-48,597,-533,109,6,-2,-52,-255,311,-97,3,21,-24,-184,391,89,-3,-6,-33,588,115,152,7,7,-8,-496,-17,110,-11,-3,-17,347,218,-10,3,8,8,-52,-514,115,-9,-13,-13,74,-52,-374,8,13,3,304,-345,-83,-15,2,2,-52,-384,-87,-8,-6,-29,-88,286,43,-4,-2,10,-211,58,27,-9,-9,-18,-4,112,-133,-2,10,8,-18,143,6,6,-6,6,-80,99,122,-11,-4,5,120,70,-100,13,-9,12,-88,23,90,1,-2,22,44,51,-74,4,4,4,-59,-83,66,-6,-1,-6,90,63,-49,-2,-2,8,-115,-144,64,6,-8,-7,117,96,-111,2,11,5,-151,-78,67,-2,-4,-10,63,63,-11,-3,0,6,-61,-62,32,0,-2,-6,87,72,-6,3,0,10,-49,-81,7,2,-4,-6,38,87,-45,down
29,-18,163,-332,533,70,-24,-24,-8,304,-771,156,-6,12,-39,-240,25,-196,28,30,-38,57,84,16,3,7,-31,-138,288,100,-4,6,-31,451,29,86,-8,13,-2,-845,-12,191,-18,-2,-24,1046,-104,-56,6,16,-1,-482,-181,46,-5,-9,-19,100,55,-63,-8,4,10,268,-255,-173,4,4,-13,-277,38,57,-8,-3,-3,205,-258,-150,-10,4,-15,14,102,-58,-13,-14,-6,-170,197,91,9,-1,11,173,97,-159,-4,4,11,-148,152,148,8,-7,12,51,174,-37,11,-1,22,-57,-111,-5,11,1,7,153,163,-13,-4,3,16,-266,-328,62,3,-2,-19,185,156,-100,-4,-1,7,-116,-71,79,0,0,-1,108,26,-66,2,6,-4,-32,16,35,0,-1,5,-81,-70,26,-4,4,-12,119,7,-103,3,-11,3,-61,76,110,6,1,4,32,-104,-88,-4,-4,-6,7,103,39,down
5,-12,161,-237,720,70,1,9,4,63,-779,-59,-13,-12,-59,164,-165,138,14,-2,-7,-181,-145,-203,16,30,-51,234,200,114,9,-1,-5,-297,-2,89,-19,-1,-29,434,21,124,3,4,-11,-343,142,58,-21,-16,-15,349,-52,-61,-1,12,-15,-130,-75,57,-3,-7,-10,-61,143,-129,2,4,11,200,-208,-142,-2,6,-2,-153,146,16,1,-5,5,-46,-257,-26,-12,-5,-26,5,-130,-139,-3,10,1,-42,312,58,-5,-2,12,-43,-46,20,11,-10,1,81,221,-27,13,4,32,-25,-10,106,8,-13,8,110,60,8,-3,1,11,-247,-102,48,3,-1,-12,228,52,-112,0,-3,6,-142,-76,20,4,7,-4,56,-28,-70,-3,1,0,-58,-15,16,-4,5,-1,62,-85,-22,-1,-2,-3,18,94,32,-3,-3,0,-38,-78,36,2,-1,-5,13,108,10,3,1,6,-6,-86,-26,down
57,-9,145,-414,87,-304,-43,-14,-12,1009,234,481,-8,-2,42,-1360,327,-413,5,36,-16,586,-411,382,-16,-19,-18,-4,-363,-65,4,-4,-48,126,-197,-107,14,12,-25,-276,231,-55,2,6,-54,495,323,215,12,14,5,-429,41,89,-17,-3,-43,387,37,136,1,-8,4,3,-139,-103,-6,5,-15,16,-8,-98,-4,0,5,-115,-272,-13,-3,0,-4,143,-57,-222,-4,14,-4,-186,-293,48,-17,-4,-16,6,233,38,-9,4,9,-38,-52,-14,-2,-5,-4,140,289,-24,-3,5,35,-71,23,149,16,-23,2,175,142,-112,6,-1,27,-245,-173,57,5,-1,-13,105,64,-94,-3,-2,-1,-136,-60,48,9,4,-4,28,72,-63,-6,9,6,45,-56,89,-3,-10,-2,51,33,-27,3,-1,3,-57,-37,-35,5,7,0,24,47,-3,-6,-5,2,-83,-28,57,1,2,-1,48,-4,-72,down
12,-26,160,174,293,-55,-19,16,-32,24,56,233,-6,-19,39,-398,-193,-258,-3,6,-54,288,-399,199,2,1,-24,-353,-215,-154,15,14,-44,383,532,76,6,-3,-3,-250,117,-79,5,12,-44,364,683,294,9,5,9,-450,-422,191,-10,5,-33,146,-12,80,7,-15,1,54,-303,-152,-2,11,-14,240,-106,-255,3,5,-2,-250,-180,121,-11,1,-3,95,-314,-218,-14,10,-19,-95,59,70,-7,-2,8,130,83,-88,-6,2,13,-43,202,124,2,-19,11,-8,102,25,-1,-3,23,-4,50,-35,10,-3,-3,-7,-63,-113,8,11,12,-52,95,45,13,-5,1,30,-118,-57,-11,4,0,-65,16,55,2,-10,-8,35,37,-30,-8,17,7,78,31,6,7,-11,-2,-73,-47,-29,-13,7,-2,34,49,49,1,-10,-6,-12,24,-27,12,8,11,23,-97,-26,2,3,-5,-50,91,100,down
-80,0,-149,47,-666,-344,24,22,34,-189,527,-101,43,2,72,171,462,136,37,-16,77,-318,77,85,0,-3,59,795,-225,-150,-20,-58,-41,-138,-42,219,31,30,69,-413,71,-153,-24,1,-21,303,-55,417,-7,-31,79,-352,5,-118,-25,11,-45,61,-718,93,2,-11,-45,-115,303,-202,21,42,-28,-10,266,78,9,-15,-28,347,433,92,11,24,0,-457,-11,83,-6,-3,-36,365,-45,26,3,9,-4,-405,-319,212,-29,-14,-35,415,26,-138,11,15,-5,-9,-15,-128,3,11,20,-95,-248,70,5,-10,-15,271,-176,-222,-12,10,0,-107,-45,18,2,-12,-5,-78,9,3,-20,0,9,10,-36,-50,5,-2,-9,88,192,-59,-12,0,30,-141,91,198,13,-22,10,207,166,-179,2,5,14,-246,-164,3,9,-2,-9,128,127,-56,-1,9,4,-164,-119,98,-7,-1,-2,141,99,-59,down
33,-42,161,-304,389,23,-9,19,12,924,260,101,-11,10,37,-1180,-836,81,-24,-41,-80,995,-450,-40,26,11,-72,-746,520,-102,1,23,-4,-213,239,56,19,-8,-35,464,504,95,15,19,10,-350,-51,338,-12,2,-11,162,-299,-8,3,-4,-48,97,-310,-42,-28,15,-18,231,-79,-251,8,10,-7,13,-124,-42,-21,5,3,-21,-327,-79,0,-5,-13,-59,64,-112,-14,9,7,-84,66,39,-4,-14,-3,38,187,10,-6,-6,19,95,221,-26,8,-10,11,-122,131,101,8,-8,20,108,-4,-163,10,3,9,-68,-7,39,8,-3,9,-3,7,-36,2,7,3,-56,-168,7,-5,1,-9,-75,49,88,-3,5,-1,97,-23,-32,5,-8,-2,-57,87,56,-5,2,-3,76,45,33,-1,-5,7,-18,-187,-88,6,4,-7,34,162,-18,1,-1,12,-108,-87,121,-2,-8,-16,151,160,-126,down
8,-23,158,38,540,128,-8,34,72,-162,-275,-115,-29,-22,-42,-42,-900,59,12,-13,-52,82,70,-128,7,35,-60,-377,456,15,17,-6,-20,87,59,158,7,9,-39,456,436,421,-6,21,-3,-326,-298,-22,2,-25,-35,193,87,214,-17,9,-17,158,9,-390,-3,18,-3,-160,-15,66,14,-14,8,-77,-497,-124,-30,8,-22,187,108,-296,10,4,12,-187,-323,-41,-3,0,-3,239,216,-89,5,-2,26,-244,-108,211,-10,-15,20,-28,-70,49,12,-11,-6,251,393,-228,1,8,31,-359,-168,145,1,-6,-9,299,138,-129,1,10,4,-176,-78,133,1,-3,-9,127,104,-71,0,4,4,-139,-104,78,-2,-2,-8,89,112,-19,-3,-2,3,-3,-43,23,-1,-3,5,51,76,49,4,-5,-1,-77,-125,-43,-4,4,0,-4,103,-24,6,-2,-2,4,-65,24,-3,0,1,-14,10,-6,down
-57,38,-140,322,198,-296,-28,-38,13,-865,165,494,58,-21,25,1325,-602,-1047,51,-11,39,-1004,472,607,28,13,68,325,129,-16,-1,-42,38,315,-269,-31,41,-7,37,-373,347,182,-8,20,62,-93,-91,247,-22,-34,4,76,-261,-200,-6,39,-20,-312,-116,29,-3,-5,-51,363,-156,60,3,16,-25,-380,104,20,-6,-1,-30,354,220,97,-12,3,9,-216,-280,39,0,-4,-44,378,19,-41,-10,1,3,-28,148,-88,-2,-5,-37,183,44,-215,-17,15,22,-338,-300,153,-5,8,-44,299,-32,-252,-6,1,14,-501,67,374,-3,-11,-18,484,297,-308,-5,14,17,-640,-238,251,8,-3,-10,484,312,-91,17,-8,28,-260,-65,182,3,-12,1,192,69,-172,8,3,15,-286,-227,81,-5,5,4,160,-10,-82,2,-2,-3,-50,71,102,-3,-6,10,75,-25,-107,4,7,1,24,35,64,down
97,-48,121,260,9,-16,-3,-14,33,-250,-163,-45,-16,34,-18,-274,-131,65,-21,-11,-49,78,39,8,1,7,-11,-128,24,-54,-11,11,-32,132,163,55,0,17,-11,10,49,64,-14,11,-23,45,-133,114,-8,10,-28,-92,378,107,-20,14,20,-108,-256,32,-4,5,-10,14,-382,-103,6,-6,-38,552,22,-369,-8,14,8,-68,-14,179,-13,-12,-20,83,161,-65,-6,1,5,-142,-317,-93,-11,-2,-27,158,302,-57,-2,-15,24,-190,188,215,18,-6,28,249,187,-219,11,-1,30,-286,-111,130,-1,-5,11,125,37,-45,6,-2,-9,-156,-5,78,-2,5,11,22,-131,-76,2,-8,-21,11,157,69,-2,3,13,-34,-171,-85,1,2,-10,-18,103,76,-3,-7,3,18,-70,-21,2,4,1,-34,36,40,-5,-4,-3,-10,-41,-10,3,5,4,22,21,-30,2,-3,-2,-62,-2,-1,down
54,18,154,215,112,223,-18,-40,11,-14,63,-27,-24,-16,-20,-303,-145,-227,2,12,-19,-44,-78,26,15,13,-10,68,2,-15,5,9,-40,40,208,-5,-3,3,-31,-7,143,149,-10,10,-28,-105,-294,9,-12,16,-33,124,-60,135,-16,-1,-14,-57,-138,38,-3,-2,0,250,198,-196,8,20,6,-71,-354,-5,-22,4,-35,351,414,-70,4,-5,28,-213,-430,-10,-6,-5,-25,127,263,-80,-15,-2,12,-205,61,172,10,-14,-6,78,42,-75,2,-2,31,-86,59,29,17,-12,0,67,71,-60,-1,-3,19,-113,-1,96,12,-7,7,37,-27,-83,-3,6,3,-122,-44,-1,2,3,-4,103,21,-29,5,-5,2,-92,-141,-17,-12,7,-1,31,66,-14,2,5,-16,-53,68,56,4,-3,16,-1,-60,-21,2,-1,-5,39,-24,16,-7,2,1,33,21,34,5,-7,-1,6,61,19,down
51,-18,149,-324,492,113,-2,-15,18,441,-545,-134,-22,14,-36,-494,-255,-50,-10,12,-44,271,85,-26,8,6,-20,-183,39,-137,2,21,-41,215,260,276,0,-2,-2,-252,69,34,-11,4,-20,292,-462,107,-15,3,-18,8,55,-81,2,11,-9,-28,-12,82,-18,-8,8,338,-74,-111,4,1,-13,88,89,-137,-12,1,-7,38,89,-78,-3,-2,-8,-212,104,132,-4,-11,-4,-157,22,-30,-2,5,-8,114,156,-36,2,0,24,-160,-183,131,25,-25,-6,73,-6,-219,-6,15,24,-105,77,156,7,-11,-7,47,52,-39,-6,4,29,-46,-74,14,12,-9,-12,72,51,-56,-11,18,13,-45,-31,155,8,-18,-4,127,-87,-229,-1,14,0,-151,-86,82,-8,-7,-5,40,69,38,4,0,1,-16,-46,-15,-1,-7,2,43,120,13,3,3,-7,-108,-104,-9,-5,7,0,72,85,-16,down
56,-38,142,727,268,-20,0,11,54,-880,49,180,-7,-7,-45,-92,-431,-70,-20,0,-46,-2,70,-29,7,8,-10,5,-157,20,1,27,-33,-61,549,22,3,6,-13,86,86,273,4,27,-33,99,-336,45,-29,-18,-41,17,-37,32,-15,10,-15,238,-481,-348,-11,16,-8,-223,63,102,14,-21,3,46,-62,-162,-3,28,14,286,52,-164,2,-14,-12,-335,44,229,-21,-5,10,217,157,-108,-3,-4,-1,-200,-143,24,4,2,2,225,410,-45,8,-1,22,-245,-131,172,5,-6,-1,322,304,-173,6,-4,29,-392,-310,137,1,1,-6,277,152,-101,4,-4,2,-212,-131,43,-8,4,2,139,41,-80,4,-1,-6,-72,-106,24,0,7,1,-28,67,-5,1,-4,-6,51,-2,30,-4,3,7,-41,-9,25,-1,-7,-7,75,47,-45,2,4,8,-106,-56,37,2,-2,-6,107,72,-54,down
37,2,153,155,200,317,-27,-70,26,129,-64,-371,-13,75,-11,-827,163,70,-3,-26,-29,787,-792,180,7,-18,-64,-218,643,-188,15,19,3,-179,178,-209,9,6,-53,216,376,258,14,22,-2,-224,21,120,-8,-12,-23,172,-277,217,6,5,-56,113,309,44,-5,14,33,-406,-796,-86,4,-17,-30,507,-380,-407,-17,19,6,-91,-11,-75,6,-3,1,-119,-314,2,-24,-9,0,87,38,-130,-12,0,-4,-168,44,127,-17,3,-3,179,281,102,-3,-15,10,-156,257,241,8,-13,18,110,182,-173,12,-1,18,-29,-68,-17,9,-2,2,-44,81,-67,0,9,11,-77,-109,29,0,-4,-10,100,107,-39,2,0,5,-147,-195,93,-4,4,-5,173,170,-50,-1,-1,6,-197,-158,94,2,2,-6,189,150,-80,-6,0,2,-183,-129,50,4,-7,4,169,213,-14,12,-1,-3,-52,-179,-137,down
5,12,163,-160,253,76,-15,-9,-4,248,-59,61,-10,-6,0,-357,-226,89,-8,-15,-53,488,-142,45,14,1,-21,-466,336,-221,16,24,-37,96,266,137,2,14,-16,-436,-131,114,-3,4,-43,785,204,99,0,19,10,-792,-382,131,-10,-15,-45,914,32,-260,19,17,17,57,-603,-336,-20,5,-17,-393,113,121,-16,-8,10,104,-89,150,-16,-15,-15,32,-324,-246,-9,8,-20,316,407,-104,-4,-8,32,-642,332,478,8,-20,15,510,166,-294,5,2,15,-476,72,274,14,1,20,398,-136,-250,5,-1,-6,-326,-1,130,-8,7,8,126,-253,-127,5,-6,-21,-51,288,103,-4,-2,22,-33,-231,-83,0,5,-20,10,214,68,-2,3,15,7,-150,-24,1,-10,-3,115,181,-32,4,9,8,-113,-218,39,-4,-3,-7,15,81,32,4,-8,-3,36,-8,-47,-3,9,-3,51,75,-38,down
-85,9,-135,-546,-470,102,38,-6,-2,737,422,-600,56,11,79,-418,340,429,42,-4,72,232,388,-264,21,-19,112,-321,-877,254,-26,-7,-24,393,708,30,1,-26,91,11,-197,-43,-32,13,-18,-264,-419,273,-21,-1,-42,75,-139,-96,27,8,-45,76,136,-16,4,11,-15,-282,53,-159,4,12,-48,424,400,275,4,1,8,-592,-152,-128,0,1,-40,475,151,261,0,17,9,-327,-308,20,0,-14,-31,240,-30,21,-16,9,-13,126,-138,-292,-2,13,-5,-217,59,141,1,-19,-1,385,-185,-201,-12,17,1,-287,-143,22,1,-18,-9,154,198,-25,-2,9,27,-39,6,3,0,-14,-4,-33,83,32,7,1,18,47,151,93,2,-10,10,-103,-51,-80,1,6,11,58,-23,-29,5,0,1,-108,-76,42,-1,2,-9,73,117,-51,5,-4,0,-35,-78,15,-5,6,5,4,97,87,down
69,-65,150,117,397,119,-3,34,60,-185,-142,-128,-50,-26,-1,134,-437,465,-27,0,-94,-550,-138,-623,47,55,-37,298,592,161,-3,0,-9,145,-236,233,-7,-21,-62,149,254,-90,23,31,1,-409,293,269,-16,-18,-4,361,-786,-170,-2,14,-44,-10,14,-124,-15,-3,2,53,-325,-295,-2,26,-29,-217,-354,-23,-27,1,-19,-49,148,46,-5,2,7,157,165,-8,-18,-7,17,-52,239,239,1,-16,17,249,412,22,5,-10,33,-225,-225,-63,8,-1,-3,110,270,-11,7,6,19,-79,-201,-49,2,0,-11,19,127,-14,11,-1,10,41,-144,-110,8,0,0,29,159,161,-8,-15,-1,-78,-110,-73,-1,8,-3,-38,26,-20,5,4,-5,54,-31,-91,-3,6,9,-140,24,168,-6,-6,3,195,12,-102,8,5,-5,-161,-73,89,6,-8,-2,182,5,-90,8,-4,4,-135,-92,28,down
-91,37,-123,-112,-473,-222,7,-25,-47,-56,148,-313,49,46,83,414,972,367,24,-81,92,264,-541,-170,27,6,89,-575,549,322,-6,-20,86,614,-198,87,14,0,43,-746,359,20,-26,2,-38,-14,-797,162,3,-5,-63,276,299,-95,25,27,-26,-258,236,117,2,10,-25,-294,-214,59,6,19,-55,781,-40,48,-22,9,-49,-625,-120,416,-10,-13,-41,411,20,-329,-9,7,14,194,-705,-566,2,20,-43,341,227,-153,-18,18,30,-515,-253,213,-3,-28,-28,91,317,-57,-12,10,48,-59,125,281,9,-37,5,-2,192,-9,-4,-4,45,-44,-69,-107,12,-8,0,-67,119,-42,5,8,6,-35,-31,30,12,3,-4,-152,-78,-99,-12,4,-2,195,55,-50,12,0,-6,-130,-81,101,-6,-4,-6,328,377,17,0,3,26,-303,-382,-2,5,-3,-27,213,209,-79,-2,6,16,-272,-196,82,down
-61,26,-145,479,-185,-470,18,-7,38,-863,264,419,35,-14,70,825,-587,-483,40,-6,79,-1325,-180,315,-51,12,12,1456,526,9,35,-11,31,-31,1243,233,0,5,113,-500,-703,232,-28,-7,-9,372,-87,31,-9,-41,-28,-374,-357,-202,12,10,-76,249,138,-5,30,5,-15,-419,366,-188,3,29,-44,182,132,195,-7,5,-26,82,-16,336,-13,-2,-4,4,-530,-163,-12,5,-47,120,-220,77,-2,-10,-10,174,253,-396,7,26,23,-145,-165,99,2,-17,-8,-167,-125,-77,-4,17,4,57,-71,-39,-17,-7,-2,-165,-16,60,-18,-3,15,303,52,-136,-5,-4,-4,-173,-122,77,-14,-10,-9,132,274,-16,0,-3,5,135,40,-166,7,-1,13,-224,264,285,18,-9,11,109,-26,-146,7,0,15,15,-41,-38,8,-3,-4,-189,82,103,-5,9,12,9,-173,-76,2,4,-13,11,100,124,down
-65,25,-139,-12,-734,-250,57,-28,-3,-353,966,324,24,33,127,143,-312,-696,32,-30,34,-54,-155,151,-14,23,49,-41,440,181,37,-40,94,1244,172,243,-24,5,41,-911,-155,296,-24,-14,-18,289,-577,-152,-9,11,-74,-582,304,29,-3,-29,-5,704,-179,-54,15,14,-54,-608,586,-84,9,10,11,35,-125,154,0,13,-63,405,467,285,7,-3,15,-275,-802,14,-24,3,-66,85,207,-122,2,10,6,16,-84,5,-3,-3,9,-10,-297,-228,22,17,1,162,-47,-155,-19,-6,8,-240,7,205,13,-6,-11,406,91,-354,-18,15,2,-294,-258,60,-8,-23,-40,-14,187,-112,-8,14,24,-105,123,97,-4,-12,3,-29,200,186,6,-6,28,36,-5,35,7,-10,13,63,141,32,10,-4,12,-86,-72,-45,10,5,-2,48,-86,-65,4,2,-1,-63,-50,8,-4,7,-5,20,-157,-42,down
7,-22,163,686,527,7,-8,0,-14,-811,-119,303,-18,-23,-11,53,-367,-209,7,2,-52,165,38,70,16,15,-6,-265,41,-172,0,17,-50,399,123,277,5,3,6,-396,94,-33,-4,6,-28,248,-80,40,7,7,3,21,-238,-8,-15,0,-33,-121,-34,-7,-4,0,-5,270,70,-110,-14,15,-5,-214,-117,40,13,-18,-10,112,40,-123,-16,16,13,-173,-224,-29,-11,-3,-31,183,190,-100,-4,3,12,23,29,62,-3,-14,4,30,201,106,-4,-5,17,-40,52,26,12,-13,8,-66,-76,-112,12,10,12,68,67,-32,14,-11,7,-175,-37,56,-14,10,4,96,-61,42,0,-8,-2,-39,-11,-26,4,7,-3,73,-40,-116,0,-6,3,-53,81,51,1,-5,4,-55,-109,-27,-7,2,-12,-40,130,79,-1,5,8,45,-91,-32,1,-3,-7,0,88,45,5,1,8,-8,-84,-36,down
26,-31,154,108,-85,22,-20,17,-35,-268,281,-65,-31,-19,20,9,-143,164,5,24,-28,-178,18,34,5,-30,26,631,-403,-246,24,39,-83,-509,642,116,8,-28,1,265,138,23,12,41,-46,-233,443,264,0,-4,4,317,-240,-26,-8,13,-8,-281,-754,-11,2,-10,-46,142,34,27,-12,10,6,240,91,-128,-4,-6,5,-157,-17,124,8,0,1,88,-227,-240,-13,11,-28,-46,64,35,-3,-2,10,-45,-106,-35,-12,0,-16,69,158,-126,-4,3,16,-143,-102,109,-1,-10,2,139,187,-47,3,-15,13,-190,92,66,12,1,15,168,151,-79,7,1,8,-181,-74,65,3,1,9,84,-2,-28,8,-2,-5,-80,-37,14,-6,0,14,106,-5,-36,10,0,-9,-21,5,-17,-5,6,3,-84,-92,30,-6,-2,-18,31,125,-26,1,8,8,-68,-81,42,8,-8,2,100,139,15,down
11,-55,145,117,285,-315,13,35,-4,113,-351,353,-16,-21,3,-256,232,-66,-7,27,-21,-275,-464,-10,16,-1,-8,16,5,100,18,6,-37,23,257,25,-3,6,-22,186,120,149,3,9,-33,140,-104,176,-10,-21,-22,170,-274,-103,-27,21,-43,35,197,-71,8,-14,24,94,-420,-247,-19,12,-25,-118,144,37,12,-12,-1,-197,-32,-165,-15,23,11,-151,-165,-19,-2,-4,-36,-110,149,-2,-26,22,12,65,-51,60,7,-15,-4,-6,209,41,-11,0,20,194,76,73,17,-13,11,7,157,38,6,-8,22,37,36,-25,16,-2,11,17,-72,-63,-3,1,8,-100,-34,57,1,-3,-6,-24,-56,-25,1,8,5,19,9,-56,-1,-5,-8,-33,-62,-4,-1,12,-3,20,24,8,-8,-3,-1,18,34,55,2,-7,-1,34,58,-22,5,2,9,-8,-65,-28,-1,-3,-3,-36,45,22,down
-68,32,-137,-178,-821,-120,37,19,15,241,471,36,30,-45,33,-225,-230,-288,10,12,30,586,909,50,6,-32,67,138,110,207,52,-41,126,-170,401,230,-45,11,78,-320,54,90,-11,-24,51,505,-623,-105,-17,39,-106,-1076,-519,-186,16,13,-37,686,-128,138,22,-15,-42,21,401,130,-2,9,-6,-576,194,-257,11,-13,-54,565,352,399,0,34,12,-632,-660,-72,-1,-7,-49,439,122,134,-25,20,-20,-304,-204,-103,-7,2,8,461,-135,-260,-12,7,-1,-174,-241,36,-7,-4,-26,202,218,-234,-6,25,11,-227,-90,127,-6,-19,-23,85,180,-31,-6,15,17,73,53,-44,1,1,0,-39,22,125,3,-25,19,-23,266,179,3,-15,29,106,-40,-179,11,0,4,-143,-37,-15,4,1,9,41,8,18,-4,10,-3,139,-21,-33,20,-12,-1,-89,23,59,-12,-3,4,-39,-79,-59,down
31,8,152,-144,8,94,5,-20,-27,-115,-111,-11,5,11,-33,71,161,107,20,7,-50,252,485,206,-6,-1,-32,28,-67,162,13,7,-32,-46,8,89,-11,9,-5,-351,-513,-132,-3,-4,-14,407,-211,-192,-11,13,6,-194,-334,-20,0,-2,-35,381,294,-172,-35,5,17,-119,-248,-70,-6,-2,-10,91,4,-226,-9,8,-5,-356,86,249,-17,-9,-6,-20,253,67,9,-2,11,274,100,-258,9,-5,14,-168,190,189,13,-14,17,76,101,-41,6,2,20,-162,-148,45,5,-5,2,34,113,45,8,-3,8,42,-134,-174,1,9,2,-45,-13,75,-6,-3,-9,44,-57,-45,-4,2,-1,-20,44,53,0,-1,3,-7,-50,-27,-4,1,-4,2,30,-26,8,-2,-4,-84,3,68,-9,9,2,42,1,-65,6,0,-3,40,77,48,3,0,10,71,21,18,0,-12,-3,-73,-144,-57,down
3,-88,149,165,1093,-262,-18,68,36,77,-729,53,4,44,-48,-373,-595,455,10,-97,-37,257,136,-381,18,71,-33,-540,308,255,8,5,-3,-306,37,9,8,0,-46,1097,566,340,-1,13,12,-257,-85,139,0,-26,-33,896,85,31,-4,5,-20,-494,-304,-139,-3,-1,1,-516,-244,50,1,5,1,-177,-592,-175,5,1,-10,233,-154,-428,-19,30,-14,-120,-200,-39,-5,2,-13,-58,-21,-47,-25,4,-8,200,53,-36,-8,-14,-19,-376,391,186,-8,8,21,312,124,15,13,-12,9,100,387,67,5,-15,36,25,19,31,13,-9,8,-64,72,-45,9,2,19,-173,-133,21,3,7,-8,64,-79,-90,-1,5,1,-35,-48,-10,3,-3,5,18,34,16,-4,6,-2,80,-155,-69,-7,1,-7,-65,132,148,5,-8,-4,63,-69,-120,-3,0,11,-43,9,97,7,4,-12,52,-87,-184,down
53,-53,139,-290,-968,-42,-71,40,-26,429,171,-365,5,-2,-19,-29,1752,321,-9,12,64,-620,-155,136,4,-6,-31,483,-557,286,-2,-1,-5,-286,-13,-10,29,-6,-19,271,-43,-12,10,9,-33,-361,361,140,-1,-5,-4,363,-536,86,-22,22,-45,-44,-320,-40,-13,-6,-23,111,-16,51,-19,8,-6,-39,-180,-305,-24,-3,-16,452,282,-117,23,6,3,-271,-144,-175,-16,21,-9,-39,-98,-59,2,-13,-14,-140,192,197,-35,1,-2,1,102,67,7,-9,-11,14,342,-12,-8,-4,29,14,-49,77,10,-11,-4,92,264,-61,9,-3,34,-102,-28,85,9,-17,7,98,-20,-182,9,13,9,-195,-125,102,2,-3,-7,72,30,-27,-2,12,6,-165,-163,51,2,-11,-3,120,-53,-76,-13,0,-2,-22,115,56,4,-6,2,94,69,-79,14,10,-5,-122,-33,113,-6,5,-5,161,177,14,down
87,2,143,-49,231,-111,-16,-86,-40,742,-199,5,5,49,11,-1399,-19,-151,11,0,79,1466,-714,-48,-19,6,-134,-1362,312,252,-37,-4,27,306,-74,-341,31,22,-8,-297,212,263,-7,7,-3,170,-222,122,1,14,-34,89,449,147,-1,6,-2,163,201,213,3,-4,-11,72,-333,65,-12,10,-33,209,46,96,-12,-27,-2,-121,-169,-356,12,15,1,174,-224,-328,-11,18,-22,14,-179,-26,-6,0,2,-85,-48,-30,-2,1,-16,44,52,-47,-16,0,1,-103,45,61,-11,-1,-14,46,255,119,3,-14,4,-125,119,176,6,-2,22,52,-122,-99,7,-19,-2,-165,132,55,-4,-2,19,116,51,-138,4,-4,11,-72,63,97,-2,0,11,112,-15,-112,8,12,-6,-93,-61,10,-4,1,7,-4,-25,70,9,-6,-6,71,55,-41,-9,5,5,-63,-44,52,5,-7,-5,-4,51,-6,down
68,19,138,175,-596,25,-33,-37,-62,-540,608,58,28,13,20,314,-526,-193,-1,19,-48,-507,438,158,7,-22,8,545,233,196,-27,11,-15,-345,-170,142,-1,1,-31,501,157,144,3,12,-14,-128,48,-155,-13,4,-3,-301,-459,37,2,14,-26,511,-456,-520,-3,21,-6,157,42,-120,-24,-7,2,-130,18,62,-3,-7,-18,-180,-119,-141,-35,4,-25,103,411,247,4,-9,0,24,252,-80,0,-6,5,159,294,115,22,-29,36,-273,-76,115,1,0,16,199,-149,-245,8,-11,7,-258,111,118,-6,6,20,107,-13,-115,14,-6,8,-142,-102,55,-6,13,-6,88,-37,-46,-3,-3,-9,-200,-68,189,4,-8,-4,171,167,-167,2,14,9,-92,-109,90,-2,-11,-6,56,88,9,0,11,6,-26,-96,-54,-1,-7,-4,71,135,59,9,-6,7,-66,-88,-63,-4,7,-5,1,-31,17,down
116,-14,108,104,491,-195,15,38,60,-57,113,424,-53,-49,-7,-104,-568,-130,-17,36,-60,-307,-52,-263,7,18,-31,81,-30,162,-5,7,-40,361,-106,81,-19,2,-4,-313,206,78,10,-3,-22,505,-137,-2,-28,8,-11,-395,-382,92,-18,-22,-30,207,115,-312,-1,15,16,30,175,26,-2,-9,-3,-26,140,70,-30,15,6,-77,-338,-74,11,-24,-20,-47,115,-129,38,22,29,341,102,-167,-14,-6,-6,-288,10,363,-9,-3,-15,121,-38,-179,-3,14,-11,2,67,185,-11,-10,-6,-25,316,254,-8,-13,8,-29,-85,-123,21,-7,9,163,248,-99,3,1,20,-368,-239,124,3,-8,-10,313,202,-246,7,9,18,-313,-285,102,4,-1,3,269,235,55,4,-12,-9,-112,-236,-114,-4,18,9,-23,61,63,10,-14,-9,56,-57,-68,-8,11,11,-125,-88,66,5,-13,-7,194,85,-45,down
105,-21,121,-242,706,-224,-10,3,102,279,-897,141,-73,-43,44,134,204,-297,-28,60,-130,-510,-339,677,-1,14,-53,-112,265,-269,40,23,-20,210,-66,231,-14,-13,10,-345,-182,34,26,-4,-51,470,544,-20,-15,6,26,-790,-75,-9,-8,10,-51,1097,210,-86,-27,-8,0,-452,-405,239,-5,1,-19,493,400,-391,9,5,17,1,-436,140,-6,0,-14,15,-117,-68,5,-5,-1,-254,-508,37,-14,-4,-22,239,190,-253,-8,4,20,-411,-403,48,0,-18,-29,334,480,-146,-14,19,16,-473,-308,86,-6,1,-21,305,464,-5,5,4,3,-56,-16,96,-21,-17,30,44,309,302,12,-22,-2,108,-6,-206,-9,6,27,-97,60,33,7,-7,-3,-71,29,30,10,1,7,129,6,-94,9,-7,6,-143,-45,39,-6,6,-2,-49,-104,-50,2,0,-13,81,80,-1,-5,3,10,-115,-52,86,down
47,-3,162,-223,482,-110,-24,-5,13,329,-839,203,24,11,-79,-396,128,-12,2,-2,-12,126,84,-35,7,0,-55,89,249,82,-18,14,-24,-162,6,64,1,5,-26,442,-18,40,-28,6,-6,-186,-348,-96,-6,-8,-8,385,294,-127,7,10,25,-242,-538,-18,-11,-1,-23,250,220,-110,0,7,-3,-115,-91,104,-14,-6,-5,-50,116,-23,6,-11,-12,-44,-208,-215,-7,12,-9,-43,300,94,-3,-2,13,20,39,104,3,-16,10,13,36,16,-3,3,6,-46,71,15,0,-12,4,209,311,170,9,-25,29,-284,-293,-107,-1,4,3,56,120,-110,16,-1,0,-155,-165,-96,-6,21,1,124,75,56,8,-7,-16,-97,35,-6,-14,4,9,38,-94,16,13,-7,-10,10,125,30,-9,7,15,-37,-124,24,2,-3,-15,43,44,-75,0,1,15,-25,-29,57,6,-1,-9,80,39,-14,down
-13,46,-157,-135,-34,-332,-27,3,2,221,304,133,-35,-24,52,-764,-103,212,53,-7,42,203,-106,-112,81,-47,142,118,451,-375,8,41,61,517,-506,-25,-14,-31,-21,-352,239,132,1,42,12,226,-443,441,9,-14,-37,-24,441,226,-24,-17,48,-357,-47,-360,-7,25,-15,230,-401,326,6,-18,-16,-83,14,-250,13,17,-50,29,263,78,-1,-5,-23,-27,111,117,-9,5,-37,92,216,179,-2,1,-7,-8,-469,-42,-11,3,-28,81,73,-184,-10,5,11,128,-403,-66,1,8,-14,192,-40,-126,-7,-1,13,-262,92,120,-1,-8,-6,445,-364,-323,-20,11,-18,-48,317,153,-13,-15,-1,-244,471,246,8,-17,16,249,-93,-265,9,14,-5,-357,-72,-24,11,-13,5,-127,28,37,-1,8,6,-74,83,86,-3,-6,10,-147,48,187,4,-11,3,309,-25,-149,-2,1,5,-227,8,101,down
61,-25,149,227,689,-145,-6,-10,14,83,-553,-7,14,36,24,-576,-355,-4,-28,-29,-66,315,-255,123,23,41,-28,-292,6,-140,-16,4,-42,-96,309,138,7,5,-15,190,75,187,-3,8,-20,-33,193,7,-19,9,-12,298,-250,135,-15,0,-8,-95,-40,-67,10,-6,-11,108,123,20,-18,21,3,410,-118,-285,8,-7,4,-167,-248,-111,-12,1,-12,222,133,-160,-5,2,-4,-36,100,92,-17,-17,-6,-309,44,66,8,-8,-10,110,177,-151,3,9,4,-81,183,101,12,-12,0,-77,-19,21,21,2,12,-14,-314,-171,-9,8,0,-91,139,226,2,-15,11,6,-115,-30,1,4,18,47,81,51,3,-7,4,-60,-103,-21,-3,8,-4,108,136,-50,5,1,4,-65,-209,-8,-6,-4,1,40,52,-43,7,-7,-14,-26,28,8,-9,7,13,9,-33,19,5,-5,-10,-25,30,57,down
-16,-26,174,472,190,-73,-2,-6,-4,-338,468,-119,-14,-28,53,521,-1352,-28,26,66,-125,-1433,1433,254,-15,-25,47,899,-1265,255,34,18,-73,-571,503,-215,-12,9,8,97,-123,103,2,5,-51,138,518,92,1,10,2,26,48,206,-19,0,-15,-108,-74,-71,13,-11,-22,597,-147,-283,-13,31,13,-315,-257,170,6,-19,-18,448,-159,-332,-12,27,5,-169,-459,171,-17,-23,-9,4,-170,-271,4,6,-23,85,530,-38,-27,-7,8,-262,399,283,3,-15,-4,181,-139,-308,15,20,-10,-141,39,113,5,-11,11,-5,214,155,7,-9,24,9,-169,-86,-6,-8,0,-57,240,72,-1,-1,15,-114,-288,-34,9,0,-1,149,209,-34,-6,0,18,-172,-340,39,2,-3,-11,72,109,-74,2,7,-2,-17,64,61,-2,8,-6,-44,101,52,-2,-10,14,127,18,62,14,-14,4,91,-34,-230,down
-39,-31,147,-257,129,-50,17,49,-21,135,146,84,-1,-6,-7,-137,-179,25,1,8,-38,138,-220,304,9,-8,19,-326,261,-279,20,7,-30,119,189,220,0,4,-23,-201,166,-25,10,13,-28,202,-65,184,10,1,-21,155,-124,169,-21,-15,-20,3,-480,-223,17,8,-14,548,120,-250,-24,16,19,-358,-450,156,21,-28,-37,105,112,-296,-37,24,28,-195,-143,-12,9,-21,-25,15,65,-122,-17,14,-5,12,223,66,-5,-12,-4,-98,162,88,-12,2,3,233,-1,-44,22,2,5,-253,57,81,11,4,17,92,-43,-16,-3,-13,-2,-69,145,130,1,-8,29,44,-72,-84,11,0,-12,-114,-52,69,-12,-1,14,41,-42,-30,5,0,-13,39,44,-26,-5,-2,11,-78,34,77,9,-7,2,107,-82,-171,-4,13,0,-200,-23,107,-3,-2,-4,183,47,-74,6,2,0,-124,-48,36,down
34,27,150,-414,860,-161,-30,-26,14,991,-806,498,-29,31,40,-507,-266,-257,10,-36,-80,23,7,33,26,25,-38,-20,193,53,6,-13,-28,-91,375,-18,3,3,-18,250,467,144,6,-2,-10,-334,-315,-73,-9,20,-27,192,-235,76,3,-6,-13,78,-543,15,-19,-12,-20,-100,89,-241,13,16,10,534,-169,-245,-17,-1,-8,-530,8,221,-9,-7,-30,247,341,-120,1,13,35,-38,-147,53,0,-25,-17,106,329,-22,-2,5,24,-103,-280,18,11,-11,-24,-56,236,-62,0,12,12,-216,-232,74,-9,-6,-24,121,158,-14,-3,-1,22,-35,56,129,13,-9,6,89,29,-55,-10,7,21,-154,-5,125,10,-17,-11,76,72,-109,4,14,24,-39,-109,-6,7,-8,-14,34,45,-27,-4,7,10,-108,-132,54,0,-6,-15,69,113,-24,7,3,11,-28,-154,-3,-1,6,-5,72,65,-45,down
8,-47,155,678,-96,363,-8,32,-36,-984,-106,-569,5,40,-3,231,-78,344,20,-19,-41,200,170,58,1,-17,-19,-297,311,-233,4,11,-16,70,304,117,10,17,-32,-128,-92,34,-10,-4,-13,123,-301,243,-11,-6,-18,-13,-94,-193,-9,10,9,413,-60,-149,3,4,-2,-299,-235,135,-16,7,-17,200,81,-70,5,5,19,-167,-278,72,-4,-10,-28,539,207,-282,-3,1,6,-472,38,204,-2,-16,-13,141,66,-284,-13,18,-3,-262,55,161,14,-16,5,-48,56,82,-10,-2,24,177,-61,-96,6,-13,1,-237,42,206,-6,-2,19,223,154,-45,8,4,3,-178,-17,90,-2,0,3,181,-152,-294,4,5,-7,-111,118,143,1,-13,10,-17,-23,36,3,9,-8,85,44,-167,2,0,11,-139,-99,113,8,0,-12,149,102,-53,-12,4,8,-107,-95,138,2,-10,-4,79,91,-114,down
29,-19,165,849,-524,191,-23,46,-57,-1383,-58,63,3,-45,-2,767,97,-359,19,39,-23,-368,236,31,-11,-24,-19,64,245,29,8,20,-28,-279,50,77,-4,12,-38,343,665,246,-4,6,19,-195,-782,56,-18,-9,-57,274,242,-93,12,8,24,-35,-414,-138,-14,5,-9,127,147,80,12,-7,11,-181,-321,-82,-15,4,3,201,-92,-80,11,-3,-3,-486,160,196,-30,1,-12,566,-29,-322,0,-1,-16,-222,88,91,-15,-2,-6,218,360,43,8,-8,12,-214,-322,-4,12,-11,-1,93,202,-9,-1,-7,29,-240,-94,5,3,-1,-4,77,44,-104,-1,9,14,-148,50,138,2,-2,-1,175,-24,-41,-3,2,6,-52,28,74,3,-6,-7,-52,34,-54,-4,5,7,30,-38,3,6,-4,-4,-13,41,3,1,6,4,-12,-76,-14,0,-4,-4,15,62,33,1,-5,6,43,-88,-81,down
37,-19,151,160,299,375,-37,-22,-21,-212,-612,-366,37,56,-56,-259,275,53,7,-11,-21,350,125,307,-9,3,-28,-210,141,-203,10,-2,-29,253,156,222,-15,3,0,-354,-314,-190,7,0,-27,499,222,-10,-15,13,13,-357,-252,60,-3,-11,-3,322,-57,-144,4,10,19,-60,-359,11,1,0,-17,-97,-169,-76,0,10,-12,102,202,-165,-19,4,-18,-53,294,182,-6,-17,1,24,-180,-180,-20,5,-12,63,-125,-137,9,1,-4,-278,258,319,-17,-12,13,142,184,-25,20,-5,15,59,8,-46,-4,3,21,-119,141,155,6,-18,0,9,-102,-55,-2,10,12,-1,43,-19,12,-5,2,-47,-111,-38,3,7,4,43,-9,-13,-3,1,-4,-98,-186,-30,-3,1,-10,113,197,36,-5,-2,11,-56,-94,75,4,-2,-13,57,80,-80,-11,1,3,-32,-5,61,12,-4,-3,41,38,-53,down
53,50,145,-202,-614,-70,-26,-60,-21,-88,627,201,33,30,-21,349,-618,141,-12,-9,-67,-655,843,21,-11,-5,2,529,-174,39,-3,30,-30,-288,11,95,3,-15,-3,439,-76,-32,-8,13,-10,211,-85,-208,-3,11,3,-230,-249,-23,-4,-15,-25,131,-130,-148,-23,21,-15,-9,184,35,12,-15,21,4,232,-25,-16,0,-10,58,-116,-147,8,-5,-1,-379,-200,-15,-19,-1,-16,326,129,15,-5,1,4,-229,9,94,-4,-11,-7,140,364,88,13,-10,38,-37,-111,-64,16,-4,9,83,80,-35,-2,3,14,-172,-130,86,8,-6,-7,100,29,-103,-9,2,8,-88,-77,102,9,-5,-7,25,-7,-85,-7,8,8,-16,-102,-5,2,-8,-11,-9,61,56,-12,6,9,-6,52,37,11,-10,-6,100,75,-81,-2,9,8,-124,-83,16,9,-8,-7,-32,93,39,-9,6,7,89,-113,-43,down
10,-34,151,724,657,-187,33,29,-10,-1081,-181,195,-25,-6,-28,96,-631,114,10,-9,-36,-43,22,-33,5,16,-20,-177,204,-77,-5,6,-28,459,-112,206,-12,12,-25,-525,157,273,3,-1,-7,492,-211,30,-15,21,-24,-76,19,-136,-2,-3,-2,435,153,-237,-5,5,17,-120,-244,-14,3,-25,-16,124,266,-118,6,11,15,-304,-269,-10,4,-8,-16,263,78,-114,-5,15,14,-358,-229,47,-18,-22,-39,27,140,35,-16,17,8,214,14,-110,-17,1,-9,-121,86,132,13,-8,-2,63,220,103,-11,-7,33,-86,58,93,10,-22,-2,-38,3,-130,7,5,23,53,71,12,20,-1,1,-124,-100,-34,-3,11,3,-13,-72,10,3,-4,-10,10,-53,-16,-5,0,8,1,125,102,13,-3,2,165,-148,-194,1,12,-4,-81,117,80,-2,-7,5,-22,-142,-10,-6,6,-7,20,-32,-47,down
107,23,126,70,-53,48,-25,-53,57,398,470,-485,-31,8,-89,-702,-75,148,15,35,27,358,332,172,-40,-5,54,-94,-869,582,-1,-37,-37,-154,264,-389,19,20,-8,258,-540,132,11,13,-70,-464,653,1,-7,-17,-20,259,-283,4,-10,13,-62,-56,480,171,-9,1,-7,218,-411,-140,-12,-4,-14,-34,161,-210,3,25,11,132,-176,3,-10,-7,3,-26,-197,90,7,-12,-3,158,-50,-213,-17,2,6,-226,-172,96,0,-5,-12,134,156,-124,-23,14,3,-21,136,97,-5,-15,-14,-160,8,-78,-9,11,-7,17,291,154,1,-7,15,-173,22,135,2,-10,3,135,180,-13,13,-7,26,-47,5,36,11,-9,8,27,-95,-107,2,0,4,-9,-40,-44,11,-3,2,-26,29,-35,5,12,3,23,-65,-11,-7,-2,-7,-73,-40,65,1,3,2,29,5,-47,0,0,4,-2,-132,-27,down
47,-50,140,624,656,214,-14,22,11,-424,-110,-231,16,9,-32,-198,-87,153,-2,13,11,-74,-597,27,18,9,-41,-63,35,129,-10,2,-24,-122,-36,79,-9,7,-42,-7,234,221,-9,-2,-25,378,-125,-232,-9,16,-30,107,289,179,-5,-11,5,-81,-396,-335,3,8,-17,333,363,-101,3,2,25,-264,-334,98,-12,-6,-27,-39,127,-142,4,2,12,-58,-55,-51,-8,1,-7,-13,-238,-71,-8,2,-18,-18,118,8,-16,-1,11,-69,5,78,-8,-5,-4,-57,28,36,-9,-3,3,147,228,-32,9,-2,14,-80,46,24,7,-6,4,80,120,52,10,-5,22,-51,-18,13,14,2,3,53,26,-67,0,0,3,-76,-140,9,8,2,2,77,55,-31,-2,0,4,-106,-210,55,-15,1,-5,46,3,-22,5,-10,0,7,-12,-106,4,8,-12,-70,113,84,-6,-5,17,74,-82,-25,down
71,6,151,-45,647,-685,-53,-8,-50,430,-741,379,30,-28,-33,-236,551,314,-1,26,66,80,59,221,-25,61,18,-498,-1027,137,-22,-99,-40,204,924,-452,29,57,13,-320,-780,190,3,-4,-82,56,608,91,-7,-18,-7,176,-187,224,-7,24,-50,62,281,65,8,-19,1,77,-294,-119,-7,39,-45,287,529,-1,15,5,15,-133,58,128,-2,-13,-5,417,-244,-391,11,2,10,-513,-102,51,2,-10,-2,163,-260,-210,-10,4,6,-21,-317,-194,-3,-6,-8,-157,-69,182,-19,-3,1,-21,-25,24,-16,2,-16,-41,-37,-89,-18,-2,-1,15,196,132,-7,-7,10,-22,155,35,9,4,3,26,92,49,2,-9,8,2,122,52,7,-4,13,-38,59,-29,15,1,8,39,94,-4,2,-2,16,-4,-71,-89,5,3,-7,-26,-53,5,-3,6,0,-7,-23,71,5,-4,3,27,-85,-91,down
110,47,114,929,770,-734,-11,-35,79,-952,-165,230,-48,-7,-62,272,-494,185,-1,-6,-54,-115,-145,150,-22,4,-17,33,-40,198,-15,37,32,-49,-285,387,-29,-65,11,-383,252,-531,29,43,11,83,-516,191,-5,-10,-39,-124,231,36,5,-4,-54,362,725,240,6,7,-17,132,558,168,9,1,-9,-20,229,257,4,-4,-29,-459,-627,-334,-4,24,-19,232,-394,-352,1,5,13,184,-202,-59,-14,-3,5,135,-254,-69,6,-8,2,146,-83,63,-19,9,-11,-136,182,-196,-3,-7,6,-337,-150,134,-5,-13,1,106,55,-69,0,3,2,94,43,-77,-16,1,1,-186,-4,161,-8,-8,-1,12,74,-2,-11,0,4,-24,132,45,5,-1,3,78,82,-25,0,0,9,-84,152,139,10,-3,13,123,-190,-184,3,1,-2,-80,233,142,6,-3,6,-7,-126,-12,-4,2,2,16,41,-54,down
88,27,129,796,701,86,-32,-86,37,-1011,-232,-22,-6,61,13,787,-298,-178,-43,28,-30,-757,-716,550,-22,-32,-25,-319,295,-568,43,30,-17,265,-307,268,-1,-11,-40,69,224,35,-3,-14,-41,-6,420,11,1,18,-17,137,174,29,19,-1,-26,129,217,238,-25,23,1,-68,-546,-255,20,-35,-25,-64,387,-14,-38,22,23,488,-268,61,11,-12,-6,-162,-479,-172,-16,2,-3,44,-406,-118,11,7,-12,-270,120,-13,-14,-5,-5,66,152,34,-14,-3,3,-27,139,-52,-22,3,-4,65,101,29,-1,-5,1,1,273,73,-3,0,26,-45,-43,82,10,-14,-3,-72,67,19,-13,-5,11,-8,156,-6,10,-2,-1,-89,-153,-82,15,4,-1,39,182,-15,14,4,15,52,-57,-19,-1,-6,-1,-14,-98,102,5,-1,11,82,29,-127,2,2,-11,-136,-124,-29,-11,2,3,-50,44,65,down
-51,20,-145,18,418,-42,-24,-19,19,-653,256,183,45,12,14,348,-766,-607,88,42,17,-198,122,-195,53,9,104,21,236,-114,7,2,91,722,153,199,-33,-86,0,362,32,134,-5,28,44,-159,-188,110,-32,-16,-9,-118,-454,351,5,26,28,-314,-134,-75,-10,-15,-47,43,42,441,18,13,-22,-176,-232,-140,-1,0,-56,51,449,121,-21,-8,-14,-42,252,54,2,1,-24,265,288,84,0,18,-10,-49,-161,-52,-3,2,-27,-30,171,68,9,-7,10,171,-359,-264,-6,13,2,117,-140,-136,9,-10,-4,-130,-362,-65,-5,6,-15,274,26,-253,-5,-2,11,-220,-177,33,-21,-8,-12,-47,-40,-32,-11,2,-11,-151,124,73,-19,-11,-6,144,269,69,11,9,18,-117,274,109,2,-11,2,-4,68,81,17,-10,18,123,-66,-123,-1,0,11,-139,-9,95,-2,-7,5,-6,34,-10,down
-42,21,-154,-459,-257,-606,10,17,-32,491,786,11,-77,26,67,-612,341,513,109,-31,37,-130,-1104,-330,101,-34,111,567,-1018,-432,19,44,154,713,147,419,-55,-87,-40,-51,744,31,-31,44,-13,-795,909,169,-14,-1,36,552,107,392,-18,-25,39,-480,-668,-108,11,21,-61,137,-357,139,23,-5,-29,-43,37,-76,27,17,-60,541,541,481,-13,-13,-38,-345,-117,-188,9,9,-35,41,74,189,-18,9,-17,-823,-394,-355,-7,5,-17,718,-140,-199,-18,11,1,330,-225,-349,-11,8,-7,-22,-28,-103,-22,0,3,-211,-52,212,-10,-17,-9,99,235,-14,-10,-1,13,-76,120,120,8,-6,6,78,91,-44,-3,-5,16,-139,116,142,12,-16,5,-38,164,-26,2,2,16,-10,-85,-62,9,-8,-2,-18,102,2,10,3,12,-64,-187,-55,4,2,-4,22,53,27,-2,5,1,0,-44,39,down
50,10,152,678,542,-22,-20,12,26,-875,-575,149,-9,-16,-57,216,-308,139,18,2,-33,-360,136,-190,1,2,-37,154,378,322,-11,13,-27,116,177,-150,10,-3,-14,165,-146,188,-17,8,-20,14,-150,-62,15,-17,-6,161,-119,-291,-20,26,0,27,-110,-70,26,-22,4,-83,-42,-69,-23,12,2,193,-252,-86,5,-4,-24,-311,90,12,-34,6,-19,249,148,10,3,6,-6,-212,28,-6,-29,-4,-2,-154,70,173,11,-11,2,4,-48,-81,-5,-3,9,84,225,169,21,-15,20,49,37,-126,1,-1,27,-105,20,58,8,-6,4,0,-47,-127,5,11,4,7,55,29,6,0,-1,32,-129,-13,-2,-1,0,-65,104,92,9,1,-1,50,-145,-146,-5,2,-3,-5,36,113,0,-7,3,-48,-245,-129,-7,4,-10,-40,160,18,-2,2,6,11,26,13,-3,4,0,-4,-2,9,down
29,13,152,274,-127,145,-18,-20,-59,-320,-2,78,15,-9,-4,165,71,-35,24,7,-17,-158,-99,-127,4,8,-44,0,535,153,2,-5,0,-16,-199,95,-10,10,-45,210,400,49,3,-8,7,30,-232,-41,-10,9,-28,175,31,-164,-3,16,16,-294,-251,269,-1,-11,1,280,-357,-30,13,-13,-3,338,-72,-423,-5,10,-5,-438,-135,-90,-15,-2,-12,51,287,44,-10,-2,14,-204,-272,-11,-18,-2,-11,-39,-139,-117,-15,6,0,80,-139,-135,-17,0,-10,-33,237,76,-21,-6,9,-28,280,289,5,-19,7,-26,306,83,11,-5,23,84,93,-64,17,-6,8,-206,-15,33,0,13,3,33,-2,-25,17,-3,-6,-11,44,42,16,4,17,110,-61,-150,-5,7,-7,-38,-87,117,-12,-4,0,-17,48,22,6,3,-2,110,-166,-118,-2,3,-2,-34,138,144,-9,-6,7,-22,-162,-93,down
-91,38,-124,-441,-388,-197,32,-20,-3,-340,143,-309,29,30,42,817,390,-143,44,-6,90,-546,502,111,3,28,27,437,-192,385,35,-67,64,317,828,-405,6,44,67,-158,-972,474,-24,-23,-29,369,41,69,-26,9,30,-352,-156,94,-11,-8,-56,-258,-330,93,9,7,-23,80,-73,37,14,0,-33,174,304,252,2,-12,-11,-189,139,-188,14,6,-31,96,268,195,1,5,-2,62,-213,-42,0,-9,-21,0,177,60,2,0,-6,378,-338,-264,-18,-4,-19,-278,110,-122,12,7,-11,422,124,-54,-12,-2,13,-395,-66,207,27,-11,-3,234,-223,-333,-33,12,0,-48,-5,206,10,-24,-2,-259,-87,-73,-11,13,3,130,-238,-264,-15,-2,-19,-210,254,258,-6,-7,7,-12,7,-69,10,-5,-4,5,142,17,13,0,25,-40,-80,47,6,-9,-4,-42,140,-16,3,0,25,-27,-111,-80,down
27,21,155,-13,529,-105,-29,29,-6,-236,-97,432,-10,-29,-22,517,-423,-185,2,13,-29,-370,87,36,13,10,-9,313,-182,118,12,-11,-35,-96,212,129,3,-12,-31,271,307,-112,8,8,-15,-303,-44,157,-6,-1,-26,-145,-69,-80,6,2,-10,210,-143,-179,-26,15,-12,-135,-175,-10,18,-12,5,217,35,-73,-15,15,15,108,-40,-31,9,-4,-4,-223,-2,94,-7,2,4,524,15,-64,-6,3,-5,-518,-87,186,2,-22,-9,260,-58,-238,-9,12,3,-273,-308,-88,-8,-10,-21,109,265,10,-5,-2,15,-215,16,273,7,-17,-1,220,195,-250,4,9,19,-149,17,72,12,-8,7,44,136,-22,6,9,17,-54,-176,-50,-3,0,-9,34,26,31,-3,1,0,-8,-42,52,3,-6,-7,-3,95,-2,-3,5,16,21,-139,-62,8,-3,-13,-32,130,70,-3,0,12,-1,-160,-55,down
-23,32,164,45,-148,-54,25,-27,-84,-388,414,41,7,4,13,211,-192,-64,5,4,-54,-238,444,239,6,-8,8,78,-211,35,18,29,-54,51,793,320,2,-12,28,36,-746,-59,-7,3,-61,446,-9,46,-16,8,0,-96,43,-72,0,-7,9,171,-427,-265,-8,2,-6,98,-242,-205,-13,7,-5,-245,19,140,-4,-19,0,216,-47,-256,0,13,14,-154,-139,-73,-16,-10,-11,-160,97,122,-15,-1,-5,33,67,32,-1,-3,0,-77,219,101,11,-3,6,60,18,-69,1,1,0,-46,191,112,4,-10,24,-1,-47,-48,6,0,8,-14,83,19,0,1,1,-59,-110,1,-4,4,0,60,98,15,4,-6,1,-21,-62,46,1,2,0,52,11,-116,0,3,0,-58,-3,89,3,2,1,65,-21,-91,-5,-4,1,-86,69,118,7,-8,3,35,-66,-110,-2,9,-2,-22,-26,30,down
23,-70,152,189,344,-39,8,105,24,-414,-228,33,-8,-50,-51,357,-345,171,6,16,-35,-304,-20,-32,10,6,-43,177,236,-17,10,-14,-30,210,437,122,-17,12,-23,-308,-278,-106,5,5,-21,213,81,136,-1,-4,5,-170,-233,-110,-14,6,-13,198,-134,-88,1,2,11,-135,-106,145,-9,-8,-16,258,86,-143,1,17,16,-326,-10,119,-10,-10,-3,297,-54,-223,-8,17,-7,-225,-108,72,-13,-5,-3,95,-89,-86,-2,-10,-7,-180,-16,-53,-15,-3,4,182,345,117,6,-5,20,0,-120,-125,-11,-2,-6,60,271,124,27,-1,23,-66,-171,-45,-16,-5,-7,-106,94,144,-3,-18,0,49,44,-108,7,15,9,54,57,-152,2,1,-1,-181,-31,165,3,-4,4,147,12,-104,3,3,-5,-84,-48,109,4,0,3,108,35,-151,-11,9,-2,-75,-112,94,4,-15,-7,83,270,60,down
79,63,118,-439,88,-335,-35,-8,6,969,-395,25,-14,-46,-13,-439,-168,133,5,32,-47,192,666,104,-11,-13,49,130,-33,360,7,-17,4,-431,-106,-366,-6,21,-5,-189,-418,168,20,-14,-22,145,-52,-147,3,2,-23,-271,355,134,-3,1,-4,182,70,59,14,-3,-33,137,295,47,-13,11,-16,17,-440,86,-3,-13,-28,229,-16,-109,-6,6,-13,17,100,-150,-2,-5,14,-275,-146,-18,-1,1,-2,226,-326,-212,-11,3,-11,-213,42,177,8,-5,5,112,-201,-201,-28,8,-19,-40,307,206,-3,-6,8,-32,-100,-83,-10,12,-15,2,33,-1,-7,-16,5,-93,211,172,15,-4,21,10,-36,-98,4,-4,9,-17,153,94,9,0,13,-13,47,-37,3,-6,7,-63,-101,-34,-2,3,-4,45,109,67,7,-2,6,-58,-147,-70,-6,8,0,41,24,-6,-1,-2,-1,16,-108,9,down
87,-23,147,920,-456,-264,-31,51,-7,-950,3,335,-27,-37,-103,-721,1068,48,16,-5,32,578,-616,-152,12,13,-38,-547,230,-39,-11,8,-5,206,124,194,9,15,-20,223,268,132,3,11,8,446,68,171,8,-9,-12,279,-356,-36,-11,-1,-20,-228,-133,-11,11,-4,-1,143,-171,-121,-20,8,2,-174,-356,-102,-3,-10,-6,-86,-506,-331,-17,18,-13,7,452,154,-8,0,-2,-50,-153,-101,-18,2,-14,13,263,-11,-3,-11,7,108,106,-3,-28,-11,-16,-195,51,105,12,20,-1,80,178,-106,-4,0,25,-20,263,313,33,-30,12,137,12,-186,-7,11,25,-195,-4,164,11,-13,-9,109,-50,-200,-3,6,14,-44,-122,26,9,-3,-12,134,177,-46,0,3,12,-282,-531,11,-6,1,-18,312,443,-78,3,-3,12,-202,-229,110,-9,1,-9,159,114,-33,3,1,4,-43,-7,127,down
