AccX1,AccY1,AccZ1,GyrX1,GyrY1,GyrZ1,AccX2,AccY2,AccZ2,GyrX2,GyrY2,GyrZ2,AccX3,AccY3,AccZ3,GyrX3,GyrY3,GyrZ3,AccX4,AccY4,AccZ4,GyrX4,GyrY4,GyrZ4,AccX5,AccY5,AccZ5,GyrX5,GyrY5,GyrZ5,AccX6,AccY6,AccZ6,GyrX6,GyrY6,GyrZ6,AccX7,AccY7,AccZ7,GyrX7,GyrY7,GyrZ7,AccX8,AccY8,AccZ8,GyrX8,GyrY8,GyrZ8,AccX9,AccY9,AccZ9,GyrX9,GyrY9,GyrZ9,AccX10,AccY10,AccZ10,GyrX10,GyrY10,GyrZ10,AccX11,AccY11,AccZ11,GyrX11,GyrY11,GyrZ11,AccX12,AccY12,AccZ12,GyrX12,GyrY12,GyrZ12,AccX13,AccY13,AccZ13,GyrX13,GyrY13,GyrZ13,AccX14,AccY14,AccZ14,GyrX14,GyrY14,GyrZ14,AccX15,AccY15,AccZ15,GyrX15,GyrY15,GyrZ15,AccX16,AccY16,AccZ16,GyrX16,GyrY16,GyrZ16,AccX17,AccY17,AccZ17,GyrX17,GyrY17,GyrZ17,AccX18,AccY18,AccZ18,GyrX18,GyrY18,GyrZ18,AccX19,AccY19,AccZ19,GyrX19,GyrY19,GyrZ19,AccX20,AccY20,AccZ20,GyrX20,GyrY20,GyrZ20,AccX21,AccY21,AccZ21,GyrX21,GyrY21,GyrZ21,AccX22,AccY22,AccZ22,GyrX22,GyrY22,GyrZ22,AccX23,AccY23,AccZ23,GyrX23,GyrY23,GyrZ23,AccX24,AccY24,AccZ24,GyrX24,GyrY24,GyrZ24,AccX25,AccY25,AccZ25,GyrX25,GyrY25,GyrZ25,AccX26,AccY26,AccZ26,GyrX26,GyrY26,GyrZ26,AccX27,AccY27,AccZ27,GyrX27,GyrY27,GyrZ27,AccX28,AccY28,AccZ28,GyrX28,GyrY28,GyrZ28,AccX29,AccY29,AccZ29,GyrX29,GyrY29,GyrZ29,AccX30,AccY30,AccZ30,GyrX30,GyrY30,GyrZ30,Label
-58,42,-144,-115,-297,-21,-14,6,-20,421,79,-379,-10,9,18,-245,172,406,-3,-5,32,273,279,-16,24,-11,55,17,54,33,30,-34,28,-135,263,52,12,13,51,23,-78,111,6,-40,0,-435,138,157,1,17,9,175,-125,-339,25,-10,-9,-270,-200,93,2,17,28,191,-168,-90,-20,5,-21,-56,-170,-217,11,-1,18,129,91,188,15,-16,-6,381,152,-386,-7,14,5,-297,-124,290,5,0,-15,193,9,-148,-6,0,-12,-92,100,372,4,-7,0,-16,-110,-4,-10,0,-10,-29,-112,-79,-2,4,-7,-38,64,13,5,3,-8,17,7,-17,-5,4,-2,-13,9,66,5,-6,7,-58,-17,-67,4,5,-1,105,-65,-85,-2,-7,-2,-87,39,124,-2,0,0,23,-22,-48,-1,5,-3,-32,61,-7,3,-3,3,-49,-42,4,-3,2,-1,23,8,-35,2,5,5,14,11,12,up
29,-51,148,85,-119,211,-1,-19,3,-170,-240,9,0,35,-53,78,-327,-324,1,58,-45,603,-249,-586,-43,9,-73,-495,311,555,-1,-2,-30,-79,-34,111,-18,-5,-66,-90,-58,-334,-56,16,-56,-41,263,43,-29,10,-11,11,278,428,5,-23,35,105,264,130,-6,17,31,220,85,-59,22,-31,44,-304,139,344,46,-4,25,187,-86,-292,9,-5,56,-95,-106,-148,4,6,12,-237,87,80,-5,-3,31,-191,80,-56,26,-9,-5,299,59,-201,-15,9,14,275,-68,0,-6,-11,22,-242,84,166,11,-34,-12,79,-30,-217,6,40,-16,22,-44,176,5,7,-6,93,-148,-90,4,-8,-10,39,-101,-28,-4,5,-17,-162,-48,107,-1,6,-5,109,-30,-13,0,-4,-2,-36,-29,-65,-3,2,-4,22,19,46,-2,-3,-3,-35,-34,-28,0,7,-4,1,36,26,-4,-6,0,11,80,21,up
35,-54,165,103,297,501,41,-50,63,54,-590,-457,-52,33,-93,-428,-285,80,17,65,-68,625,-309,-786,-1,52,-66,218,-221,-368,-49,-12,-67,-886,645,1089,-12,-20,-42,549,-191,-717,-32,33,-60,-503,270,558,-30,-26,-16,-150,287,399,-11,-3,25,359,97,-218,14,10,33,123,193,190,26,-23,47,19,99,134,3,8,36,63,-27,-166,23,-25,44,-343,240,236,38,-13,18,-134,-80,-129,16,6,1,412,-124,-511,-16,26,21,-123,-56,122,-15,-21,17,-309,-128,-3,19,-5,14,291,50,-93,-12,-18,-1,-262,-215,-59,1,21,-36,201,200,125,-4,17,9,-94,-84,54,12,8,-14,188,-48,-85,-1,-4,-13,-42,63,125,0,3,0,77,-80,14,4,-10,-2,23,-29,-66,-2,-5,-8,-52,52,49,-6,15,-9,74,112,12,12,-4,7,77,-10,-7,7,-10,5,35,-179,-85,up
-69,48,-136,-379,-111,-14,-1,19,-12,382,67,-74,-13,-36,10,-183,280,463,3,-1,25,155,24,-201,0,-3,31,-71,163,160,34,-11,33,14,65,-32,17,-6,25,14,-116,-113,14,-16,19,-351,266,327,26,9,18,57,-379,-402,-16,17,17,67,59,-83,22,-5,4,-226,-219,15,-5,-20,20,221,207,66,0,1,-25,33,-249,-307,-19,17,-4,87,54,194,15,-15,16,-139,-18,-49,7,12,-17,149,-81,-101,-15,14,-19,-72,67,191,3,-9,4,44,2,33,8,-4,0,58,22,-97,7,3,-9,-77,-107,50,-14,9,-10,90,-17,-34,0,-4,-1,-74,-14,45,-4,-1,-1,11,6,4,3,-1,-1,6,29,-3,2,-1,1,14,-6,-18,-5,5,-3,-5,-21,9,2,-1,2,-40,37,53,3,-3,4,33,15,2,0,-2,-2,28,54,7,2,-4,3,-5,-70,-40,up
35,-49,148,-86,103,345,34,-3,46,254,-676,-363,-23,28,-63,1,-129,16,-28,30,-40,-134,-595,47,-41,20,-85,248,349,-403,-18,28,-41,-249,-168,237,-25,-28,-96,19,661,-138,-33,6,-52,-82,161,-78,-22,-3,-23,-89,322,286,-1,-4,42,-69,118,267,12,1,24,222,244,5,34,-5,61,34,11,139,18,-13,30,-116,71,-28,10,-3,47,65,54,-28,20,-17,22,-230,-76,22,1,4,22,74,-61,-269,7,1,20,-172,-233,-176,20,-1,-24,291,209,-144,-21,0,3,-521,-139,407,9,12,3,385,6,-358,-2,6,4,-204,-59,266,9,-10,2,325,47,-184,3,21,-16,-67,-261,41,-9,-4,-10,113,61,-14,-4,-3,-14,6,-12,62,-3,10,1,6,-20,57,2,-13,-3,118,3,-108,3,-4,-4,-243,-25,113,-3,3,-3,81,-7,-73,-1,5,-2,-7,33,26,up
29,-62,141,223,-240,-33,-3,-6,19,121,-442,-228,-40,8,-58,-120,64,139,11,16,-26,-203,-198,-1,-11,20,-71,159,345,-274,-2,28,-67,-570,-36,401,13,49,-59,622,268,-614,-61,-12,-50,-423,1,909,-28,-37,-10,228,490,-157,2,20,9,98,-133,-67,3,-12,40,-165,357,485,31,-22,59,-57,-264,-212,16,0,36,217,215,-218,21,-21,44,-434,-80,206,23,-4,42,223,12,-346,-1,8,10,-46,-142,-99,6,-3,11,-235,110,258,0,7,-1,443,-62,-186,1,-15,7,-61,-198,52,-4,8,-19,-52,-49,-139,-13,7,-22,-18,9,173,-13,4,-20,177,9,-66,10,-3,4,-213,33,213,4,-5,-6,104,-41,-170,1,10,-2,-61,-37,5,5,3,-1,191,23,-80,-3,-3,-3,-75,-61,-95,1,-2,-6,61,-8,21,-5,3,-2,-119,66,100,-1,-6,6,18,-24,9,up
29,-68,137,154,-221,-68,13,-3,16,4,-301,-128,-39,15,-43,-412,160,352,11,36,-52,214,24,-363,-8,42,-38,135,-29,34,-38,-8,-87,-498,34,323,8,37,-35,232,101,-216,-35,-9,-71,-85,139,177,-5,7,-1,9,199,91,8,-13,25,141,-170,-41,1,11,23,264,17,-82,-10,-31,34,-59,356,311,20,7,43,-52,158,-50,34,-21,25,84,-31,-109,9,-8,18,-227,-13,10,2,19,19,-88,-328,-373,-12,-7,-10,9,234,285,34,-3,20,-43,-173,-251,-16,23,23,249,137,25,-1,-50,25,-150,68,81,28,-25,10,235,-234,-296,1,52,-25,-144,22,166,-13,3,-25,-113,-124,80,-6,1,-21,114,136,56,5,-3,-6,-66,-120,132,-5,2,-5,115,-73,-121,-2,3,0,-92,26,35,-1,-7,-3,70,-22,-61,2,1,-3,33,52,-2,-6,2,-6,-73,-49,17,up
5,-53,163,216,-15,84,44,-8,39,56,-497,-37,-13,0,-26,130,-435,-359,1,9,-81,-307,12,108,-29,47,-67,90,-134,-271,-78,27,-119,-244,675,269,-12,31,-77,-238,309,191,-10,9,-41,408,291,-305,1,14,15,-72,-227,409,-3,-47,38,-23,219,196,-2,6,47,-35,-95,8,3,-30,55,-18,374,24,45,-4,38,-191,108,126,15,-5,19,279,74,-138,23,-15,39,-298,-273,88,-21,13,14,217,89,-396,27,-15,22,-459,55,264,17,-4,4,383,79,-249,14,-2,-8,-33,-526,-165,-23,36,-15,96,47,156,-7,-16,-11,-119,-111,-116,6,9,2,116,145,-20,5,9,-14,2,-41,173,-9,2,-17,133,-52,-72,-5,-8,-4,-99,81,83,12,-1,-1,25,-92,-20,-9,3,3,27,-42,-13,5,12,0,52,-21,5,-2,-12,-4,-16,-21,3,-4,-16,-2,16,39,9,up
-76,30,-146,-359,-208,-196,-12,22,-21,15,-12,241,-12,-6,-18,312,363,3,-6,-5,39,-152,163,346,23,-19,52,277,230,-99,17,-5,45,-189,-56,63,13,1,23,-59,68,-51,27,-21,33,-110,61,-106,21,6,20,201,-1,-125,-10,-5,10,-330,-153,11,14,19,17,174,64,-34,4,-34,6,-99,45,-98,28,9,-1,88,-233,45,-12,24,2,368,-173,-247,4,-21,-12,-374,-37,242,3,17,-8,297,-14,-111,-1,0,-11,-155,-134,80,-13,5,-22,23,-28,-48,-10,5,-17,8,12,90,5,-10,2,-37,40,17,0,3,0,67,25,-23,-4,-9,4,-4,65,-1,4,5,-4,-23,-46,16,1,-3,7,31,64,13,3,-1,1,-10,-152,-87,-7,-1,-4,13,55,18,2,-3,-3,54,18,-117,-3,2,-4,-149,66,217,6,2,8,66,-130,-121,-3,-1,-3,-76,103,113,up
37,-53,153,176,-215,222,18,-13,15,354,-585,-651,-41,35,-77,-26,242,108,-31,-5,-49,-773,-525,416,-6,38,-93,402,787,-492,12,51,-52,-602,-399,558,-33,-12,-66,614,526,-440,-44,-1,-9,-133,96,54,-10,2,4,12,0,131,-10,3,48,142,237,66,32,-24,47,-159,141,404,41,-16,44,214,147,-236,3,4,31,-213,-11,116,16,-33,23,-401,28,122,21,-1,10,241,-52,-431,2,16,16,-120,-275,166,2,3,23,247,-189,-252,10,-15,-3,-179,14,-14,7,27,-8,490,25,-197,-13,-5,9,-382,78,428,0,8,-21,100,-129,-261,-15,9,-37,44,124,187,0,2,5,-46,-177,-58,-6,-1,-8,135,194,83,11,-24,14,-115,-211,-92,2,13,-5,40,120,16,-3,-1,-4,5,-60,-79,-4,6,-6,-43,9,31,3,5,-2,73,-36,37,-3,-3,-1,-24,26,9,up
26,-42,148,-245,250,443,36,8,67,365,-477,-316,8,-1,-51,406,-140,-304,-5,-13,-64,-480,-278,403,-1,44,-87,1201,-224,-1720,-98,52,-137,-1686,-28,1494,-39,-9,-58,375,566,-67,-45,-20,-15,-124,24,201,-3,-7,18,-410,285,525,5,3,29,716,128,-838,1,-17,41,-367,228,625,34,3,40,261,-16,-387,17,-5,32,39,160,-98,23,9,39,-494,-355,4,27,-12,7,315,616,44,17,2,26,104,-210,-160,12,-18,36,-290,-54,136,6,9,-1,336,-187,-276,18,4,11,-336,-38,270,-3,-14,-9,432,-167,-226,-28,12,-15,-162,-140,138,8,5,-6,225,-5,-107,-18,-12,-29,-165,-24,156,-15,18,-17,27,46,88,-2,-5,-6,-28,104,-25,9,-15,7,-24,43,13,6,5,-2,-49,32,40,2,2,5,16,-141,-52,-5,-2,-4,-16,38,-16,0,-3,-9,-35,10,22,up
29,-47,164,257,-163,-1,28,-28,47,-363,-422,158,-17,47,-60,319,-308,-484,-42,44,-86,-540,-400,365,-4,33,-107,1134,788,-893,-25,7,-78,-627,-418,693,-49,-17,-58,-232,846,46,-15,15,-12,58,-181,52,-10,2,7,416,323,-174,-11,-15,37,-391,277,556,20,-18,44,59,183,79,23,-21,52,269,69,-251,35,-14,33,-275,44,179,12,25,19,-150,-237,-84,17,-37,26,-144,156,115,12,-5,26,431,-51,-531,20,0,28,-330,-23,362,7,-1,14,122,-301,-265,-7,-6,-8,-101,-167,-170,-3,24,-24,-26,103,111,-9,13,-18,206,-169,17,-2,-4,-16,-89,61,166,-2,-5,-10,186,-77,-116,-9,3,-12,-60,38,13,-2,14,-10,-82,-31,46,3,-8,1,29,87,44,3,-10,7,-14,-77,-51,-2,10,-1,14,61,31,2,2,1,-16,-51,-7,-1,-8,-1,-1,45,18,up
30,-44,155,-214,-131,228,11,-6,30,426,-416,-394,-15,20,-33,-193,-75,102,-31,6,-79,-318,-397,68,-10,41,-102,563,328,-690,-2,27,-67,-379,39,277,-25,8,-71,360,339,-308,-39,23,-37,-75,232,226,-12,-3,-7,-324,422,677,-9,-16,46,341,221,68,22,-34,56,-89,51,73,29,-2,58,9,-94,-143,39,-24,53,-264,69,107,28,-8,52,2,-278,-264,20,-18,13,108,-115,9,-17,30,-1,-169,-82,15,-9,12,9,196,-154,-35,6,-23,-1,26,103,39,-7,-6,-10,123,-126,-211,-5,26,-18,-173,37,295,-1,-2,-26,360,-70,-193,-5,-13,-14,-184,-30,24,-11,6,-22,-101,89,102,-9,-8,2,31,105,-89,20,5,5,-87,-54,-34,5,0,12,-87,-8,5,-12,4,-3,85,41,-73,19,4,9,-89,-65,82,-10,-5,-7,54,15,7,-4,5,-6,-9,65,-26,up
51,-56,143,99,-136,278,4,-18,38,104,-330,-179,11,42,-23,18,-303,12,-54,0,-93,-56,243,-252,-5,54,-96,63,-355,-194,-32,29,-104,-82,478,-290,-35,20,-40,293,188,353,-40,-45,-19,-389,71,37,13,22,7,-169,206,319,21,4,53,172,189,254,14,-25,43,13,93,52,25,-8,49,170,37,-167,18,-15,40,-300,-244,68,12,-25,33,467,157,-323,3,-2,2,-432,-53,293,11,-22,37,330,-97,-467,5,25,-15,-674,-120,408,1,-18,7,613,173,-216,0,5,-3,-368,-364,18,9,13,-6,239,140,-40,-20,6,-28,238,-53,-53,10,-3,-4,-443,61,367,2,-2,-6,270,21,-292,-11,1,-11,-164,-73,138,3,1,-2,27,-88,-133,0,4,1,-129,-63,29,-9,6,-4,19,-28,4,-5,6,-6,0,68,-16,3,7,11,111,85,38,1,-1,0,62,41,7,up
29,-46,148,-46,-184,-16,13,-3,8,113,-214,22,-8,0,-34,-99,-293,-28,-3,37,-74,399,344,-329,2,32,-44,-311,-668,94,-69,25,-123,83,617,-184,-25,10,-23,-202,-4,329,-37,-25,-53,423,230,-296,-12,-7,0,-286,291,410,8,-17,32,-259,71,204,29,3,40,201,97,-26,21,-11,58,-199,-36,84,21,9,33,-93,-1,-197,13,5,33,294,184,41,7,-43,59,28,15,-85,32,5,17,-194,-108,190,1,-25,5,-187,-187,-153,-6,12,-8,299,73,-16,15,-3,21,-293,-252,-44,-6,20,-36,553,-105,-366,-15,11,-48,-454,166,424,-12,5,-9,382,-144,-235,-7,3,-9,-247,61,202,7,-15,1,96,49,-132,1,9,4,-114,-5,142,0,1,-2,10,-1,-47,-2,5,-2,42,70,8,13,-14,16,-57,-37,-23,-12,22,-5,64,-18,51,4,-3,-1,55,-55,-39,up
28,-57,149,-143,-18,68,23,-25,34,300,-350,-260,-39,17,-58,-269,-128,-37,5,55,-55,-28,-361,-56,-22,35,-113,30,430,-145,-8,46,-78,-332,-320,393,-60,-2,-86,1011,344,-713,-47,7,-28,-560,210,755,10,-5,12,-87,451,415,2,-32,70,89,72,68,24,-22,66,-290,193,-19,56,-27,69,427,261,-251,17,-3,46,-664,-231,145,28,-16,61,506,-127,-621,17,36,-6,-113,-101,186,-2,-27,16,57,-168,-77,-10,10,-19,-41,-79,-31,-3,-13,-12,233,84,163,-8,5,-20,22,-176,-90,-9,16,-27,-382,-138,143,-14,-4,-32,354,115,-190,-11,11,-8,-178,11,164,10,-3,10,97,20,-102,-1,5,-2,-105,79,119,9,-6,12,81,33,-40,2,-1,2,-35,-81,17,-4,1,0,18,22,-53,2,-2,2,-64,-33,47,0,1,-1,1,-20,-48,5,1,0,-3,10,40,up
30,-61,145,389,-327,-147,-10,13,-9,-44,-233,7,-29,-6,-42,-87,51,-88,0,28,-79,-251,-382,-110,-19,57,-112,-33,593,171,-15,13,-80,174,-504,-351,-44,12,-60,170,673,-31,-25,-6,8,-945,173,908,1,-4,35,745,515,-129,38,-26,95,-383,94,330,35,-11,63,437,125,-309,28,-13,64,-105,-128,132,16,-35,41,-202,-276,-337,-2,41,-2,20,-212,28,7,-24,18,-38,-52,15,-8,15,-28,363,128,-83,19,-39,11,-145,-40,107,-9,16,-26,136,-173,-240,-9,21,-19,-112,-57,240,-6,-7,-13,58,-138,-244,-25,21,-27,-115,136,215,12,-14,-2,103,60,-97,11,-2,5,-122,-13,-21,-1,-6,8,73,-11,-107,-6,9,2,-3,44,43,-2,2,-1,-102,-55,80,2,-7,1,89,36,-66,-1,4,-6,-77,5,122,5,-3,5,13,-34,-73,-2,2,-2,11,59,10,up
36,-56,144,-140,-216,282,8,-2,22,499,-336,-389,-20,17,-55,-280,-101,102,-40,17,-55,-21,129,-216,0,35,-90,311,-348,-424,-16,38,-102,-505,660,329,-16,19,-44,385,-481,-281,-51,5,-38,-208,536,470,-5,-28,33,-494,196,643,5,-2,56,685,359,-377,32,-21,63,-475,16,471,36,-12,53,255,61,-348,6,1,27,165,3,-140,24,-56,46,-294,-282,18,-11,43,9,78,-135,-367,20,-14,5,-323,15,356,-9,5,-4,273,59,-220,0,3,-9,26,-77,121,-13,5,-3,176,91,-33,12,-19,-2,-69,-167,-15,2,18,-26,52,21,25,-15,19,-29,-9,-140,1,-4,-2,-12,-33,61,49,2,-11,5,37,109,-16,0,-1,5,-123,-22,-1,11,7,8,73,33,-46,-1,-3,1,-43,-53,49,-2,-1,-2,-16,-17,-11,2,4,1,3,-8,-29,4,0,-4,40,-27,-38,up
25,-57,151,-144,111,457,42,-45,70,472,-578,-559,-38,22,-79,-129,-171,-406,-34,43,-69,-572,-218,369,-7,57,-118,516,598,-386,-11,56,-79,-161,-398,430,-14,-12,-75,755,442,-1231,-39,25,-12,-619,-238,914,-28,-32,12,-265,378,773,-15,-27,53,-210,171,255,33,-11,46,232,219,-73,28,-2,48,44,241,40,31,-15,31,-97,-43,-110,4,-5,27,31,115,121,5,-2,25,-112,-22,-107,13,-20,16,293,-127,-496,3,17,0,-304,22,269,14,-3,31,322,-246,-301,10,-23,-19,-16,79,-4,4,28,-1,-139,-216,-15,5,3,-10,271,21,11,-1,-4,-22,-121,-90,177,-13,15,-12,-76,-121,-49,-8,-2,-16,114,130,-6,5,-23,6,-82,-22,3,-2,9,-4,0,8,-39,-1,12,-2,-26,-73,-2,-2,-8,-2,36,86,48,10,-1,7,-24,-89,-71,-6,7,-7,-73,22,52,up
52,-43,152,-18,16,279,7,-34,75,60,-460,-124,-10,11,-46,339,-212,-458,-29,54,-67,-758,-534,631,-14,47,-156,501,467,-633,-32,49,-108,-221,-296,65,-61,-27,-68,393,910,37,-34,-15,5,-275,-80,107,-5,-20,-1,152,531,97,16,10,49,56,56,117,27,-18,52,377,287,-135,46,-3,58,-245,-222,14,29,-4,51,-286,-26,118,7,-36,32,-189,53,23,-11,28,6,115,2,-174,12,-34,27,-515,-158,33,-1,29,17,658,233,-13,24,-29,13,-452,-420,-31,-8,13,-12,731,178,-103,10,-3,-18,-397,-416,-7,-18,28,-37,195,35,7,-8,-8,-19,-145,116,220,0,-6,8,187,-125,-165,-3,-9,-5,-234,132,133,0,17,-12,91,-77,-111,-1,2,-6,-82,145,178,2,-14,8,93,-95,-129,2,9,1,-98,40,57,-3,8,3,44,-3,-5,2,-9,-4,49,-19,-17,up
33,-53,142,123,-163,-86,13,2,22,-230,-422,31,-23,12,-40,304,-78,-297,-24,31,-60,-262,-101,172,-5,31,-47,205,164,-6,-21,-4,-76,-433,-76,210,-21,7,-56,304,603,-216,-17,2,-34,-153,-375,-42,-23,7,-18,324,253,-206,-10,-5,3,-352,317,528,0,-2,50,39,97,136,37,-1,42,164,149,-65,11,-13,27,12,14,44,16,3,38,-320,-115,81,0,-9,22,453,301,-45,16,-27,15,-461,-199,-107,21,14,22,282,137,-123,17,-24,20,-225,-198,35,4,3,0,-162,-126,22,-6,18,5,346,-333,-312,-1,-7,-27,-256,132,144,-17,26,-20,236,29,71,3,-7,2,-10,-28,21,3,-5,-17,213,79,-121,-2,14,-8,-299,-161,102,-12,2,0,121,20,-21,-7,-8,-4,-41,39,-37,12,4,5,21,35,62,0,4,0,-13,-1,-7,3,0,-1,42,-28,44,up
47,-48,140,128,-176,-126,-13,29,-23,-15,-104,18,-11,-7,-13,199,-389,-38,1,27,-47,489,-244,-599,-51,-11,-88,-616,441,549,-15,8,-67,-313,-226,-16,-28,-3,-69,205,528,-295,-20,29,-29,-364,-65,436,-3,-10,-19,121,220,25,-10,31,45,0,-26,206,11,-25,43,213,422,199,26,-21,65,-11,77,-82,42,-13,60,62,204,-226,-2,-2,11,-321,16,208,35,-9,69,-162,-244,-149,0,-9,-8,246,12,-273,0,18,2,-52,-210,180,10,-9,4,123,-66,-150,-2,-1,-17,247,37,21,-2,18,2,-75,-273,95,-10,-8,-17,-40,9,-103,-3,-2,-20,89,-91,55,-13,4,-25,-148,40,26,-1,1,-9,105,-31,-17,-5,-4,-8,-123,184,39,5,-7,10,-102,-44,39,1,9,2,115,35,-56,7,-4,3,-53,12,0,-1,5,-1,-3,-17,-9,1,0,-2,-5,11,35,up
38,-28,149,281,9,198,21,-63,9,193,-511,-304,-28,29,-51,-387,-289,-243,-48,44,-85,-8,130,118,1,26,-24,-52,-85,-73,-20,14,-64,149,514,-31,-4,10,-18,-181,-324,81,-21,-8,-57,218,316,-146,-13,18,-30,-141,14,206,-15,-11,5,-228,205,369,-8,-7,30,55,274,239,30,-4,64,120,-85,-165,17,-29,49,84,226,-94,-2,-24,8,-728,213,274,50,35,65,325,-227,-377,-9,-11,-1,-66,126,-40,3,2,19,226,-415,-331,22,30,0,72,346,266,9,-21,34,436,-375,-256,-3,-19,-29,-376,9,237,-6,15,-29,5,-44,110,-15,11,-24,117,-31,-31,12,-15,-8,-80,1,4,-7,22,-7,-5,-75,2,-16,-9,-11,45,94,-15,12,-8,13,-46,-75,17,-2,8,-3,32,42,-50,1,8,-2,42,3,29,1,-14,4,-45,23,23,4,3,-1,16,11,-20,up
40,-45,143,63,-285,-32,-3,-6,-13,150,-319,-218,-12,43,-48,-196,113,251,-28,4,-48,314,-293,-357,-40,12,-42,34,126,174,1,-7,-68,-384,350,-33,2,26,-39,-67,-284,-105,-45,3,-63,96,523,51,-18,4,12,-209,-104,289,-1,6,10,186,523,70,19,-3,48,38,133,264,43,-39,56,119,39,-144,33,-4,19,-154,-267,-62,-1,-6,38,-193,-82,-14,4,0,22,-212,137,69,18,3,26,81,-235,-172,-4,-11,4,384,182,-70,-3,8,-1,-585,-419,12,-6,13,4,661,408,-13,30,-42,12,-45,-152,-3,0,25,-18,-101,-135,-8,-19,16,-39,-9,-75,-1,-11,4,-21,2,48,124,-3,0,-9,110,-6,-105,-2,-9,4,-66,59,54,3,-1,3,-8,35,-18,2,15,3,-80,-15,19,6,-7,7,47,-30,-39,-8,0,-8,26,74,43,7,-3,11,-38,-130,-32,up
-54,38,-142,-164,-548,-404,-37,13,-18,152,251,102,-18,-12,-24,-43,178,255,-1,-4,19,166,344,134,-3,-6,34,81,263,114,32,-13,52,-14,-23,-44,21,-5,18,47,191,64,41,-17,57,-227,-205,32,5,-2,0,-115,76,-91,16,13,26,-166,-164,35,8,-25,40,150,115,-64,26,-27,12,95,-104,-116,18,22,25,105,-371,-143,-17,0,-22,-43,-79,-29,-18,17,-40,-100,-120,88,-22,15,-39,216,169,70,-3,-23,-6,-74,-80,0,-3,17,-4,48,66,-59,-5,-1,-4,-115,40,58,4,-2,4,60,31,-49,-1,1,-6,-69,51,111,3,-3,7,3,-49,-48,0,3,-2,-52,55,13,2,2,7,15,-58,-6,-1,-3,4,37,95,-22,11,-7,5,-58,-119,-19,-8,7,-11,43,101,28,5,2,4,69,-97,-19,-2,1,-8,-67,43,12,3,-4,2,33,-59,-39,up
-79,30,-138,-149,-759,-337,-34,1,-34,170,285,43,-26,-1,-16,-80,442,260,-10,8,25,-42,312,240,16,-6,37,247,390,3,51,-6,57,-80,-11,159,22,-18,35,150,195,-57,38,-10,42,-386,-97,144,26,-8,25,9,-87,-136,-9,2,28,-43,-244,-118,31,-30,8,365,-36,-162,-1,-18,-5,-88,-134,-93,-18,32,-10,-613,-258,132,-23,14,-23,611,149,-313,11,7,3,-231,24,387,6,-10,8,161,67,-49,9,2,-4,-57,-202,-86,-13,13,-20,185,-34,-7,-1,-12,-11,-109,38,40,-5,14,-14,49,-1,-41,-2,-5,8,-91,10,31,7,6,-3,61,-13,-50,2,-9,6,-27,-10,9,-2,10,-3,-60,-22,21,-3,-8,1,56,38,-19,2,4,-6,-2,-23,29,-1,-2,4,-46,-53,-18,0,-3,-3,7,85,0,-2,6,3,47,-12,-3,2,-2,1,13,40,24,up
47,-70,130,-134,-245,11,0,29,17,65,-327,-166,-4,10,-29,166,-119,-100,-23,19,-49,92,-58,-216,-57,7,-71,-174,-289,169,-38,16,-91,7,337,-50,-9,23,-46,-17,197,-103,-4,19,-40,-197,145,204,3,0,3,199,212,-2,-22,-4,34,-54,196,401,-6,-18,47,100,211,128,40,-32,44,1,97,-13,24,0,29,-44,-60,-48,-4,-10,21,-66,227,-13,35,-3,31,-335,-1,271,7,-1,15,92,-56,-286,11,-5,18,-39,43,-15,24,9,10,277,-192,-271,-24,18,-5,-25,-377,-93,4,-25,-14,263,145,155,13,11,-5,-166,-85,93,-11,3,-16,-104,-118,-112,-2,7,-17,51,102,127,1,-3,4,14,-143,-38,-7,-2,-10,-12,34,-86,-5,5,-7,-28,0,45,-1,-2,-2,74,60,1,2,4,-3,19,13,-3,0,-8,5,-65,26,-17,3,7,-1,37,-25,3,up
51,-68,140,257,-61,79,11,8,6,-76,-481,-287,-23,38,-54,-130,20,176,-13,13,-45,79,-286,-154,-13,16,-67,-89,-442,-215,-50,27,-74,-199,370,-5,-42,9,-48,-96,41,135,-48,4,-49,467,314,-155,-5,-6,-11,-255,495,352,-17,2,34,11,487,361,43,-25,70,96,113,14,56,-13,43,402,179,-77,11,-12,55,-818,-109,369,24,-25,23,114,93,-77,12,6,31,-329,-397,-361,17,24,0,621,27,-175,-15,-3,8,-610,-351,89,-3,0,1,557,105,-181,1,-24,-11,-31,107,114,-1,13,3,-87,-80,51,4,13,-15,235,43,-77,-3,4,-21,-194,-140,114,-1,-1,-10,98,29,-72,0,-1,0,-2,-26,-11,6,5,-1,-78,-39,-33,-5,2,-1,132,30,65,2,-15,2,-75,-64,-57,1,13,-7,1,14,35,-2,-2,-4,-16,-30,-32,2,0,3,-49,24,25,up
40,-27,161,24,-100,201,24,-7,4,357,-386,-238,-33,12,-73,-101,-14,-101,-27,8,-42,4,-527,-128,-39,-11,-78,-128,169,-32,-17,49,-78,-97,-105,-270,-46,17,-66,271,504,-102,-14,6,-20,-201,419,362,9,-6,5,-82,302,316,14,0,53,-62,18,267,14,-25,57,240,184,-26,20,-27,36,43,1,-76,3,-9,11,-449,4,151,6,8,66,-144,228,-113,38,-18,28,207,-87,119,-17,17,14,-84,-230,-324,20,-20,-17,153,109,130,9,10,14,-18,-258,-110,8,6,-36,-11,-101,-104,-7,2,-10,93,20,123,1,-2,0,-44,-224,-190,-8,22,-19,-5,159,164,-4,7,-6,48,-109,-71,-5,-9,-6,156,194,107,13,-21,10,-94,-120,-105,1,27,-3,-113,-10,45,-4,1,0,72,-41,-13,-2,-4,2,-5,27,56,4,-8,-1,4,-51,-79,-4,9,-10,-21,66,45,up
-44,63,-142,296,-895,-550,-60,-25,-47,-632,408,719,-42,-5,9,-28,545,146,25,-27,53,256,529,17,24,5,52,-56,176,-2,42,-5,56,-137,42,-52,25,-7,45,203,418,107,38,-12,55,-180,-545,-295,20,-1,12,414,86,79,17,17,4,-76,-456,-238,-2,-31,-10,-12,28,64,-11,2,-11,-65,-175,10,-11,24,-29,113,-276,-69,-7,-12,-15,36,82,48,3,-5,-16,-22,-120,-56,-15,29,-20,-144,-28,111,-4,-7,0,148,122,-25,7,-12,3,-33,-36,14,-3,8,-1,-117,11,-14,1,0,1,34,-6,-14,-4,-3,1,-12,91,51,5,4,1,52,-61,-67,2,-5,5,-25,49,32,-2,-10,-8,14,91,-61,3,13,3,-117,-70,22,0,0,2,-5,30,2,6,6,8,109,-57,-32,-8,1,0,-42,18,57,3,-5,-2,47,-28,-68,-3,4,-5,8,29,85,up
33,-46,152,516,-256,-92,15,-6,-15,-671,-163,269,-6,44,-41,523,-345,-593,-41,-2,-90,-570,362,373,9,25,-51,744,-655,-911,-67,9,-117,-292,501,380,-14,14,-22,-421,277,404,-20,4,-26,103,24,66,-22,-6,38,-194,402,501,26,-18,72,363,246,-143,29,-33,67,-90,-144,-113,36,1,38,10,224,-69,-5,7,15,-99,-147,106,12,-29,26,-26,-95,28,3,22,-9,15,101,-156,9,-32,10,-19,87,77,2,15,-11,105,-99,-137,20,-1,11,-74,-30,-13,-4,4,1,155,-33,-40,14,7,-6,19,-272,15,-7,0,-23,-111,32,-44,-8,12,-11,-46,-107,120,-4,-1,-10,153,115,-47,4,-4,2,-171,-111,7,-7,2,-7,157,162,-34,3,-4,1,-84,-88,63,0,2,1,4,-52,-67,1,-4,7,-56,23,6,0,1,-9,68,8,-7,1,9,1,29,0,-2,up
31,-65,140,373,-191,-152,19,1,9,-536,-319,89,1,42,-28,432,-191,-263,-34,-10,-66,-235,-100,-216,-41,15,-74,-526,-202,274,-32,43,-65,787,264,-395,-16,5,-54,-543,273,438,-29,13,-36,252,209,42,-8,-9,-18,-37,263,345,-8,-14,55,-145,100,158,18,-1,32,332,387,-70,15,-38,68,-344,-75,254,40,14,22,151,197,-268,-3,-16,27,-357,-123,72,23,22,27,270,-60,-162,1,-1,18,-133,-4,96,15,-19,3,-6,-117,-111,-5,6,0,175,129,3,38,-10,15,164,-272,-167,-18,17,-11,-21,101,-16,-1,-7,-17,-151,-290,146,-3,11,-15,79,125,-40,-7,-9,-17,28,-61,6,-2,15,-12,-15,-57,20,-1,-11,-4,-61,30,-66,1,0,3,82,53,-10,8,11,5,-33,-38,10,-8,-7,1,-72,-50,-42,-4,3,-5,17,68,51,-2,-6,7,-82,-81,-43,up
54,-37,145,203,-216,286,0,-18,23,-53,-291,5,-6,10,-44,253,-209,-446,-24,53,-62,-124,-524,58,-28,-17,-83,145,240,-410,-34,40,-64,104,-65,-317,-34,-1,-79,-93,520,311,-34,8,-24,-402,358,140,-12,0,-20,-120,259,300,-6,20,33,-105,231,329,22,-12,44,470,358,149,23,-27,69,-155,-9,97,58,-22,39,-104,195,61,-3,-5,33,203,-279,-399,1,-5,23,-544,-105,140,14,2,14,279,119,-77,12,-24,6,53,-250,-89,-17,11,15,32,5,17,33,-4,-4,-84,-57,-125,-9,7,-8,185,35,23,-4,18,-29,-51,-188,31,-1,-6,-9,40,-5,6,4,3,-4,-18,-71,-53,-9,11,-15,55,-63,-18,-1,-3,-3,-10,78,130,8,-10,6,115,-6,-189,0,-1,-2,-253,-82,126,-10,15,-18,127,88,-17,8,-11,10,12,-3,-5,1,8,2,-55,-24,5,up
53,-74,134,157,-3,126,21,-1,35,-408,-565,-113,-33,35,-50,525,-296,-364,-40,14,-59,-120,151,-16,-48,29,-65,69,-252,-66,-14,7,-80,209,497,-130,-1,25,-60,-397,-82,325,-26,-14,-37,140,208,-171,-27,15,-26,-474,22,357,-13,-7,24,-28,457,326,12,-1,50,372,388,0,55,-27,67,-268,5,120,13,-6,36,395,52,-420,3,4,41,-527,-154,154,54,-33,49,-124,297,197,-10,1,41,482,-288,-282,16,-6,11,-323,-272,-71,-12,20,-32,399,-33,-18,-10,10,-26,-237,91,222,5,-14,-1,408,-39,-158,2,7,-13,-306,-205,77,-4,9,-21,60,-50,-148,-14,5,-26,19,66,43,4,6,2,8,-13,9,-2,-6,1,-59,74,-20,7,0,5,31,-31,-24,-2,5,1,-70,46,38,4,0,6,47,-32,-12,6,-5,3,-4,-15,39,-8,0,-8,36,-11,-25,up
-66,35,-148,-22,-691,-224,-26,-16,-41,-178,442,213,-24,5,-1,79,297,-41,-9,2,29,-192,426,430,45,-9,70,263,157,-137,35,-7,43,211,-26,-171,25,-14,35,-371,-27,207,1,3,23,185,74,-57,16,-31,28,-246,-190,73,3,38,14,-139,-153,-127,23,-37,13,233,218,34,5,15,4,314,-202,-278,-4,-11,-3,-274,-91,231,6,9,-20,127,-44,-168,-3,20,-20,-30,-138,75,10,-11,-10,36,-168,-176,-22,7,-24,-11,76,16,-5,11,-2,-34,-63,-4,-1,-1,0,65,122,63,6,1,7,16,-23,23,-3,-4,0,-76,-21,58,1,-2,-4,108,65,-63,6,-4,5,-120,-39,76,-5,8,1,41,-50,-121,2,-8,0,-10,94,53,5,-1,3,-34,-133,-17,-14,8,-8,52,31,-9,0,-3,6,-9,5,-24,6,2,-3,-9,54,87,2,-4,-1,41,0,-73,up
26,-39,150,-54,-318,174,14,-9,27,-185,-228,45,-22,20,-30,415,-343,-564,-24,32,-78,-102,-145,0,-48,28,-103,82,82,-153,5,42,-87,232,21,-32,-20,-13,-57,-487,626,553,-22,-11,-27,349,-142,-463,-33,-10,-1,227,513,152,-5,3,42,-817,335,817,36,-9,66,504,155,-129,23,-25,69,108,84,-137,19,-30,44,-674,-74,130,15,0,48,401,218,-130,21,-11,21,-290,-397,43,18,-15,14,413,35,-266,20,14,-7,-374,-147,72,-13,7,-9,107,-88,-62,-18,-5,-26,113,-98,-20,12,14,-8,-112,-169,13,-15,30,-36,156,37,-73,-3,-14,-8,20,-57,16,-1,4,-9,-18,92,53,-6,0,-3,-6,-27,-72,1,3,3,-54,95,135,8,-2,11,63,-66,-109,-4,0,-1,-134,-1,95,-1,2,-3,126,21,-53,7,-2,10,-130,-74,78,-5,0,-7,75,43,-56,up
50,-64,137,253,-249,-43,-17,9,-16,-17,-348,-238,-12,28,-36,-81,123,74,-21,16,-40,-142,-227,32,-32,16,-48,324,-56,-197,-6,2,-62,-158,217,-95,-23,4,-52,-455,1,230,-23,29,-48,421,95,-345,-12,7,-38,128,434,295,-22,-23,32,-378,282,594,17,-7,44,62,294,11,41,-6,65,189,109,-87,40,-10,55,94,134,-55,7,-23,21,-710,-209,398,8,-14,24,411,-231,-348,21,20,18,-276,-240,-292,-1,5,4,-40,128,370,9,15,5,516,-181,-487,-4,-25,-12,-259,127,253,-3,13,-7,69,-125,-125,-19,-9,4,172,-71,38,17,1,-29,-39,91,-4,-1,11,-3,-249,-268,11,-12,8,-20,213,211,-45,8,-2,-4,33,-46,54,-1,-2,1,-16,62,-33,1,5,3,-53,-116,-40,-1,-1,2,-10,71,59,-2,1,-5,116,-2,-28,-2,-4,6,-175,-25,14,up
57,-52,138,136,-151,134,2,9,12,-149,-439,-10,-28,6,-33,412,-44,-264,-17,45,-58,12,-329,-381,-48,13,-76,-113,237,392,-24,-12,-72,-46,-164,-277,-15,37,-64,162,447,26,-20,-25,-37,-435,-40,170,-14,12,-5,360,519,-12,-16,-17,36,-632,294,577,20,-15,53,330,390,-157,27,-1,60,-224,-274,116,26,-8,26,-147,191,-231,20,34,25,109,-160,37,23,-19,54,34,15,-76,25,11,10,136,-118,-63,-8,-9,8,-309,-255,-16,-5,-2,-10,637,142,-22,-19,-11,-8,-176,-103,48,7,-14,-4,21,-97,-86,-2,23,-27,23,135,147,-3,1,-7,32,-102,45,8,-5,-5,-59,-32,-66,-4,4,-10,85,-50,-27,-2,6,-12,-131,28,10,8,-1,0,75,7,-12,-4,-1,-1,-89,2,75,-4,-6,4,-3,-40,-134,6,7,6,0,53,114,6,-5,2,35,3,-17,up
-69,18,-141,61,-522,-523,-19,13,-33,27,191,90,-35,-4,-10,-458,330,644,11,9,44,380,201,-139,23,-20,50,-11,296,302,28,-23,44,182,-108,-245,18,-1,26,-438,-40,48,5,-9,22,-76,302,104,35,13,45,-8,-328,-108,-3,-1,12,179,221,-83,18,-19,3,56,-273,-7,-24,16,-20,19,-11,-237,29,-15,2,78,-84,273,-3,-4,6,145,-50,-341,10,19,-12,-349,-112,286,-10,0,-10,311,-63,-167,-8,2,-22,-114,-17,52,-7,8,-11,49,-31,67,-2,-12,-5,-82,121,-2,3,13,-2,100,-4,-44,7,-1,4,-5,-16,24,-2,-5,4,-24,-76,-41,-2,2,0,-79,7,47,-1,1,-4,71,-10,-25,0,0,-1,32,24,-10,1,-6,0,-92,-27,-38,-2,9,-2,7,-4,24,1,-2,-1,46,38,-27,-4,0,0,-36,37,64,5,-1,4,69,-20,-76,up
37,-45,156,-35,-95,214,20,-12,31,566,-495,-299,-9,8,-58,-479,81,126,-27,33,-74,35,-750,-227,-50,11,-115,639,529,-583,-10,37,-75,-762,-358,282,-45,-6,-67,280,780,-97,-32,15,0,-297,26,324,-15,-10,2,-169,552,444,19,-3,80,-56,89,242,45,-27,63,325,314,35,10,-8,35,-228,-125,-46,13,-15,38,-231,21,88,6,-20,13,156,-114,-367,25,34,19,32,-115,68,8,-8,-6,-152,-99,12,-3,6,7,247,30,-128,11,-21,12,50,-64,-46,4,22,1,178,-64,-264,-1,8,-13,-93,40,320,17,-27,-5,106,-78,-43,-24,12,-21,-152,-147,66,-2,0,-12,-56,-145,-89,-8,11,-16,50,176,52,5,2,-1,75,1,-52,-3,-6,5,-142,-40,64,0,6,-4,105,52,-74,6,1,8,-82,6,70,-5,-9,3,102,-18,-39,4,2,-2,-43,-58,-61,up
-64,37,-141,-135,-654,-33,-35,-8,-40,512,205,-370,-19,4,-9,-146,415,288,-16,-14,18,-497,372,456,17,-5,46,370,340,-80,38,-11,68,-106,-100,-68,49,-17,42,70,73,-130,-1,10,19,-465,-84,302,7,6,40,-10,-120,-98,27,-9,12,324,52,-83,-12,4,-1,-173,-203,-71,21,-24,8,446,262,52,-1,5,8,-206,-328,-127,5,-7,-17,-15,31,42,-16,23,-26,-204,-154,80,-8,12,-18,149,-47,-47,4,-13,-5,88,101,11,6,-9,7,-44,-105,-48,5,11,-6,33,31,-19,-5,14,-3,-79,-99,6,-3,-2,-6,50,53,45,-2,3,-5,77,-15,-69,1,-5,3,-134,30,52,0,5,-1,101,52,-55,5,-2,8,-49,-61,81,-4,1,-3,33,16,-53,3,-6,3,-40,5,21,6,-2,-1,55,-21,-5,-4,-3,-1,-16,10,-29,-1,9,-2,-48,-38,-4,up
49,-61,139,-144,-6,209,0,-3,11,436,-330,-379,2,43,-19,-473,-252,197,-12,28,-57,914,-347,-706,-51,0,-75,-774,174,437,-22,20,-68,724,380,-435,-28,6,-68,-754,2,539,-28,1,-56,172,584,-150,-7,22,4,-128,-322,386,-8,-32,24,0,305,195,12,-12,43,41,129,61,27,-19,53,-76,-43,34,23,-16,31,-296,183,-67,12,18,19,75,156,-97,12,5,43,10,-13,-26,34,1,39,36,-45,-142,17,-10,20,163,-112,-161,20,-2,0,217,-314,-226,-22,8,-4,-309,133,382,19,-2,-5,513,-282,-327,-29,-10,-35,-206,135,283,-13,17,-27,-61,-191,-17,-9,0,-15,139,76,84,0,-11,0,10,27,-18,13,-10,11,-269,-104,-4,-13,13,-10,103,60,-38,-1,0,-6,-9,55,92,6,2,1,2,-78,-54,-5,-1,0,-58,29,4,0,3,-2,50,24,-14,up
34,-57,142,238,-488,-136,2,17,-1,-340,-200,188,-5,38,-48,433,-268,-354,-63,-1,-96,-98,305,97,-11,8,-56,279,195,-232,-22,15,-62,-135,-28,-247,-22,13,-52,-195,419,319,3,-3,3,-138,-59,194,-13,-11,16,-31,404,343,13,-10,55,-258,45,270,26,-11,43,470,27,-260,11,-13,24,-333,106,85,19,-20,42,-104,-90,70,13,-7,13,-214,107,-141,-1,31,10,147,-102,-96,6,-20,36,-87,123,47,30,-7,-5,271,101,-127,10,7,30,6,-256,33,0,-8,-16,51,-70,-108,2,10,-19,-93,-241,-3,-16,27,-26,14,-83,-39,-8,4,-22,180,9,51,-7,-6,-6,-26,-8,-36,1,4,-4,-47,66,76,1,-1,-3,66,13,9,1,-9,13,-55,-39,-33,2,8,-4,-37,-23,-33,-4,3,-1,-9,28,82,1,-2,0,87,14,-25,-5,-6,0,-50,-13,7,up
-73,23,-143,206,-590,-636,-18,13,-34,-192,461,281,-10,-2,-17,-140,62,200,6,6,31,-102,270,339,7,15,61,124,219,142,31,-30,53,315,46,-38,17,-25,31,-248,-4,118,9,5,25,225,-28,-190,1,-48,33,-394,-296,-202,16,22,-10,201,541,150,21,-13,33,-298,-181,96,-2,1,-18,299,-82,-403,-1,7,0,-433,15,331,30,7,17,436,-227,-336,-13,19,-10,-245,-10,179,-1,12,-11,122,-221,-79,-12,-3,-26,95,16,32,-3,9,-11,-6,-39,57,0,-9,-2,122,80,-26,4,-4,3,-49,20,-65,1,1,5,-30,-64,-9,-4,2,-6,32,13,14,-1,6,-1,-11,-16,53,1,-2,-5,35,34,-42,1,2,-2,-52,-47,-6,4,-5,2,-48,78,3,-4,0,2,38,-11,-7,2,-4,6,-15,-71,-33,-4,8,-4,-19,23,22,-6,-1,-3,52,21,15,up
55,-46,158,-105,167,391,28,-23,58,114,-550,-217,-7,26,-32,26,-174,-48,-3,26,-75,73,-701,-492,-57,60,-166,62,203,-255,-44,30,-98,-191,23,267,-56,-19,-57,651,678,-476,-37,-19,-6,-500,413,635,4,-16,33,-197,92,236,16,2,66,65,229,191,35,-14,60,127,18,7,28,3,39,16,-118,-206,-1,-11,5,-279,169,343,10,-2,31,51,-213,-247,9,-20,-3,65,217,-26,5,6,16,-367,-29,208,16,-14,44,149,2,-111,10,-24,17,40,-18,-218,12,34,-11,-73,-170,121,0,9,-8,325,-41,-158,-6,9,-30,-95,-224,51,-13,11,-24,-12,-35,65,-6,-7,-15,89,48,-40,5,-5,5,-9,39,54,-3,-5,-4,5,26,-88,-1,1,1,7,40,9,10,8,1,-45,-33,8,-3,-3,2,2,-39,-21,1,2,-2,-11,29,2,2,5,-2,50,-40,9,up
-63,26,-144,144,-528,-466,-32,-16,-35,-146,85,167,-29,11,-10,-184,326,227,-5,13,28,-84,372,297,40,-7,58,458,271,-2,32,-15,57,-235,173,211,32,-36,49,55,-174,-230,10,-20,30,-321,36,68,19,14,28,106,-161,-286,10,-16,16,-173,-276,30,-26,32,-17,85,-61,-175,13,1,-11,122,245,193,8,-11,16,318,-73,-189,3,1,-13,-250,-50,200,-4,12,-25,98,-71,-72,-13,-1,-19,-35,-49,49,-4,11,-12,-7,-38,-29,0,3,-1,13,0,106,5,-13,8,75,65,-109,12,-10,7,-166,-42,57,-4,13,-8,123,-92,-61,-10,4,-5,-77,24,-6,5,5,-3,57,34,76,0,-15,1,52,44,-40,6,6,6,-131,-108,8,-8,8,-3,29,48,2,6,-9,4,12,50,31,2,7,-1,48,-32,-34,-9,-11,-4,-68,-50,35,-2,7,-6,74,118,-3,up
59,-32,144,134,-113,-15,20,-38,49,-20,-560,-63,-22,29,-50,-95,-389,-193,-35,17,-64,262,209,-262,-35,29,-74,-116,-278,65,-34,11,-92,74,541,4,-17,24,-39,-378,-201,384,-47,-23,-70,424,497,-331,-17,11,-5,-604,227,529,5,-4,27,257,314,-73,35,10,71,-198,-1,325,18,-27,62,484,210,-427,58,-13,53,-628,-138,357,-22,4,35,493,178,-279,14,-31,30,-648,-252,95,28,2,8,409,199,-61,-8,6,5,-184,-364,-135,14,2,-17,62,226,148,-19,23,-17,107,-263,-155,-5,7,-13,175,68,164,3,-25,3,-40,-106,-121,2,23,-19,34,-25,-9,0,1,-7,16,-37,67,2,-4,-1,-27,-28,5,-3,-2,-6,-61,-56,-10,2,3,-3,-29,37,-38,2,6,0,96,29,30,-2,-13,4,16,63,-35,5,1,6,34,16,4,-2,-3,0,-37,-97,-90,up
29,-44,149,40,-188,145,27,-25,28,-183,-391,63,-7,27,-43,-5,-245,-204,3,76,-69,113,-176,21,-50,23,-91,380,28,-340,-74,1,-99,-114,636,306,5,-14,-41,15,-200,-92,-35,-26,-29,472,573,-350,-9,-9,10,-954,113,699,4,-10,48,45,222,-83,26,7,44,-35,-24,46,26,20,34,268,124,-84,21,-13,36,72,24,26,20,-7,18,-496,-149,209,-7,3,12,432,91,-259,10,-32,21,-168,-106,164,15,-9,24,-232,-30,-152,17,16,10,6,-143,35,-21,-4,-9,181,64,-118,-2,12,-7,104,-130,10,-2,-16,-18,134,-12,-72,2,22,-26,-174,-21,165,-5,1,-8,129,-39,-120,-4,4,-12,-29,87,104,10,-2,10,35,-14,-21,-2,5,0,-105,-73,31,0,-6,0,20,-26,-36,4,1,0,5,106,61,2,-3,4,10,-113,-67,-1,-3,-1,3,63,38,up
-71,26,-141,385,-792,-906,-27,12,-33,-454,348,531,-22,-4,-13,3,379,232,-11,2,24,-58,300,209,27,-9,57,58,378,232,41,-16,55,183,-51,-153,12,2,27,-77,95,104,14,-15,38,-268,-149,41,21,-14,22,74,28,-96,11,-3,12,-65,-151,-139,-5,8,-1,-376,-126,100,14,-2,0,646,112,-243,6,-7,1,-314,-257,-17,3,24,-6,160,110,139,-8,6,-8,-33,-274,-138,-2,-5,-12,118,174,112,-2,4,-6,28,-151,-41,1,-5,-7,-63,-73,-7,-7,5,-14,103,73,3,5,4,0,-14,16,11,3,-3,-5,-7,12,-23,-4,2,1,-37,1,23,3,-5,6,-9,-81,20,-8,11,-9,24,43,-67,3,-10,11,18,-9,13,7,-5,-4,-48,115,42,0,7,6,11,-153,-68,-3,-3,-8,-18,4,-20,0,-10,2,59,34,21,-3,16,-3,-97,-44,-33,up
50,-46,144,264,114,270,39,-32,43,-120,-628,-124,-38,31,-65,-166,-322,19,-37,39,-45,288,-12,-452,-57,11,-88,520,-124,-305,-24,-5,-87,-651,308,185,0,35,-69,291,50,-338,-60,-7,-45,-474,550,719,10,-11,21,-330,96,289,-15,14,34,394,356,-56,25,-26,67,-295,207,450,50,8,63,629,-59,-615,16,-41,30,-483,-1,366,22,17,22,-101,82,-38,-4,-10,16,12,-245,-238,21,4,22,-18,12,95,4,9,15,530,-151,-355,0,-17,-4,-399,-35,276,-5,-5,-13,297,40,-75,0,-8,-10,-50,-157,55,-21,8,-32,-264,-20,-27,8,15,-9,177,132,9,10,8,1,-2,-108,-23,-1,1,-4,-6,-8,20,-4,-8,-4,3,-5,-87,4,13,-2,76,77,81,1,-4,2,-85,-96,-16,-6,-2,-3,-64,4,-9,6,6,0,63,58,3,-1,3,4,37,-79,32,up
57,-64,138,-50,-68,52,10,-4,49,-50,-377,25,-17,23,-58,110,-334,-329,-26,43,-70,-174,-294,74,-22,21,-85,446,289,-508,-22,40,-61,-223,-79,494,-46,-32,-52,43,349,4,-32,6,-28,119,-31,-141,-19,-18,-26,-146,502,289,-5,2,26,-344,172,320,9,-13,46,286,358,-33,26,-4,43,-396,17,-24,55,-4,51,411,434,-93,11,5,33,-440,-282,-50,31,-19,47,168,121,-16,7,-2,24,10,-190,-169,11,15,15,-1,-28,16,26,-21,0,76,-161,12,-32,25,-33,-31,-292,-147,-2,14,-27,73,69,234,-6,0,-7,211,-108,-39,6,-12,-1,-184,-60,-12,-12,11,-20,223,40,14,-6,-5,-7,-92,-9,49,13,-4,4,-10,-23,-63,-2,2,-3,-51,70,23,5,-2,1,38,-60,27,-1,1,1,-65,12,-44,4,-6,3,10,11,65,1,1,-3,66,-29,-113,up
44,-21,155,137,-402,31,1,-31,10,-1,-430,-85,-15,32,-50,-16,-307,-139,-28,26,-63,-80,145,40,-64,14,-90,362,233,-136,-34,0,-72,-526,-240,180,-20,8,-56,478,894,-230,8,8,9,-149,-243,158,-10,-26,-16,74,496,133,-10,-5,36,-420,173,330,10,4,38,-51,146,94,35,-23,60,127,130,8,26,-13,15,-22,-235,-250,-2,16,29,-514,38,378,26,-10,26,98,10,-291,-16,17,-1,256,175,-32,32,-12,33,4,-139,119,1,-6,0,113,-174,-420,1,6,-31,-136,-22,95,2,15,9,143,-2,18,13,-3,5,132,-152,-65,-1,0,-13,-289,28,164,-15,22,-23,138,-82,-57,4,-9,-1,109,64,50,-1,-13,-1,84,-4,-60,6,1,5,-139,-107,35,-9,9,-11,20,54,-73,6,7,1,-33,-113,37,-6,-8,-3,41,57,-28,-2,-2,-6,-28,35,25,up
-86,24,-133,34,-484,-54,-21,-11,-35,-8,381,0,-13,7,33,-133,333,326,17,-20,39,298,292,-123,40,8,54,-102,-138,-96,27,-24,36,100,273,-28,7,20,11,-369,-194,1,15,-12,38,168,135,122,1,1,5,-237,-198,-135,34,-15,13,177,125,46,-7,21,7,-40,-226,-30,19,-4,6,-20,-95,-2,-11,11,-15,333,7,-57,3,-12,-3,-96,-314,94,-6,-10,-21,-65,12,-61,-19,16,-22,-68,-15,73,-3,2,0,124,41,-71,5,-12,-2,-24,63,-21,-2,7,-4,-61,-62,8,0,7,-5,22,1,-3,-1,-7,2,39,50,10,11,-1,3,-49,-7,4,-8,5,-3,-32,-61,3,-1,-1,3,45,37,3,0,-2,0,-11,41,11,2,3,0,26,-51,14,1,-1,2,14,28,-17,-4,-7,-3,-21,-33,-10,2,0,-3,-47,22,9,1,4,1,35,24,19,up
-51,52,-145,-256,-882,-2,-34,-34,-38,456,426,-200,-30,-4,-15,-4,8,-260,-33,1,19,-369,618,492,14,-8,54,14,391,213,56,-5,69,291,109,-176,16,-9,36,-274,-31,199,18,11,22,-188,-66,-65,36,-20,28,168,109,-46,19,8,10,-73,-76,7,10,1,7,85,-152,-187,13,2,23,141,-110,69,9,-25,5,-209,-208,-61,-4,5,-12,241,30,-76,-24,20,-24,-177,-203,100,-12,3,-9,136,31,-33,-1,-16,-14,11,-4,35,-2,14,-7,14,-50,-69,-1,8,-6,-44,41,86,2,-13,2,88,-60,-81,-1,2,-2,-141,33,78,3,10,0,111,20,-102,-1,3,-3,-7,-7,81,-2,-10,0,-51,43,-12,2,5,1,-19,-45,-35,-6,12,-4,-4,62,31,9,-6,7,64,-45,-3,-3,-2,-2,-13,16,14,3,-5,2,-4,6,22,1,1,-5,15,-2,-14,up
53,-66,157,257,43,161,30,-14,31,-77,-645,-221,-18,31,-53,-123,-255,-230,-44,44,-67,97,-188,-144,-54,14,-98,-67,62,-6,-15,34,-37,130,186,-8,-24,17,-56,39,160,69,-31,-29,-18,-413,51,248,-11,-16,-29,49,424,147,-10,1,15,23,28,-17,-13,5,12,-90,454,281,25,-3,38,73,163,24,27,-3,44,127,118,-62,22,-16,25,0,245,-36,26,-24,45,-140,-205,-26,26,9,19,22,173,57,20,10,25,-533,-487,-21,2,-13,27,519,237,-158,24,-18,29,371,-244,-234,9,10,-9,-472,-91,244,-28,10,-47,390,-297,-240,-9,7,-27,-309,84,235,0,-5,-11,274,-48,-153,-4,6,-3,-118,-29,49,-8,1,-6,-79,-38,-48,-1,8,-8,57,26,73,0,-3,-3,-24,5,54,-3,1,3,-91,-17,-106,4,-3,-2,93,114,55,6,0,7,-14,-24,6,up
-70,21,-137,-19,-795,-526,-47,11,-47,42,275,126,-18,-8,-4,-144,297,345,-11,1,11,-53,297,128,6,4,44,110,464,265,42,-27,69,215,48,-194,30,0,34,-286,-98,74,15,-14,33,-59,103,32,17,-9,13,39,-65,-159,21,17,29,-162,-17,135,19,-8,21,209,-218,-287,-1,9,0,-372,63,183,9,4,-5,490,-269,-245,-16,-9,-23,-77,148,120,5,12,-2,5,-147,29,-11,-3,-3,83,73,-28,9,-8,2,0,-70,18,-2,1,-9,-59,-112,-103,-2,17,-17,94,8,67,-3,7,-2,-31,-49,-6,-2,-7,-6,-6,-15,-9,0,4,-7,-58,-12,29,-3,-1,-6,115,145,3,5,-3,7,-21,-103,0,1,-6,9,-63,0,30,0,4,-1,31,35,-57,2,-9,3,24,6,-1,-2,7,-6,28,18,2,-3,5,1,-4,-45,26,2,-4,2,-61,10,-88,up
41,-50,146,201,-152,141,13,-22,29,77,-479,-130,-30,-20,-48,87,-21,-154,29,84,-42,-603,-607,-7,-72,30,-125,497,558,-131,0,21,-50,-546,-340,242,-47,-8,-76,557,594,-323,-43,-6,-40,-578,152,551,-23,-16,-9,206,295,-82,-24,6,34,-96,201,117,27,-2,54,146,549,101,56,6,81,195,3,-157,46,-31,37,37,-24,-122,19,21,34,-303,-108,290,33,-20,15,-184,-183,-66,-10,28,8,440,43,-143,1,-41,24,-110,-379,-190,5,-9,-1,-50,190,231,-12,7,-11,-118,-230,-112,-5,0,-18,187,50,44,-2,13,-14,-74,-46,62,-6,-2,-8,-11,-95,-85,-3,4,-14,82,26,-19,3,5,-2,10,5,97,4,-4,0,72,-16,-139,0,6,-9,-58,13,74,-1,-10,2,-5,9,-90,5,4,1,-73,29,25,-8,5,3,23,-37,44,2,-6,1,6,-13,-16,up
-65,51,-161,169,-904,-722,-40,-9,-34,-191,375,501,-36,-14,-20,142,248,35,-15,5,15,-180,521,544,15,-27,56,3,442,132,64,0,70,128,9,-102,23,-29,41,-115,22,31,29,-2,38,-159,-1,-197,29,-12,9,-114,-93,51,-2,23,35,-126,-140,12,29,-9,18,-11,-42,-266,-8,19,-18,277,-26,-40,2,2,0,-137,-179,53,-4,0,-11,282,-111,-129,-10,0,4,138,-47,18,-6,-9,-1,-190,-24,132,6,7,-18,89,-9,-50,-7,14,-19,-69,-46,88,4,-8,-9,143,20,-58,-8,-9,-4,-91,-16,-34,3,20,1,-25,51,56,8,-6,3,81,-33,-51,-8,2,0,-64,19,32,7,-8,2,26,-26,-37,-6,4,-7,-9,-15,21,-1,10,1,33,19,39,4,-14,5,-26,34,-27,-5,2,-4,-11,-4,-25,10,9,9,12,-40,46,-4,-6,-3,-10,5,-26,up
56,-57,150,267,-85,168,22,-20,41,99,-650,-399,-11,36,-57,-46,-372,-128,-35,26,-92,-45,-50,-217,-65,25,-101,-54,-178,-8,-23,7,-55,284,382,-227,-32,7,-39,-383,144,332,-47,-9,-41,-127,412,196,-6,7,-4,-108,349,341,-9,-9,26,8,302,120,6,-6,42,-18,332,233,35,-22,61,30,143,92,35,-18,46,91,58,-186,35,6,30,-214,-76,-28,4,-6,26,-154,73,13,23,3,18,-57,-190,-164,15,-3,-3,240,-198,-24,-11,16,-18,411,-57,-357,22,4,9,-729,46,371,-8,-3,5,480,103,-48,12,11,2,-84,-227,18,-2,-19,-9,150,-102,-105,-6,14,-8,-102,-115,69,-4,-1,-13,123,-120,-101,-5,7,-21,-33,49,20,-3,-3,-5,16,-6,15,-2,4,-3,19,64,-26,4,-2,4,-55,4,37,4,1,2,17,14,39,-4,0,-3,22,66,-48,up
20,-56,153,88,-432,-98,32,2,43,225,-289,92,27,5,-34,25,-590,-408,-61,31,-129,-134,129,23,-48,24,-59,26,-79,43,-36,-8,-55,182,428,-249,-9,-2,-27,-360,92,215,-32,23,-61,3,310,-171,-31,2,-11,-70,304,338,9,-11,18,-132,315,279,17,7,39,-159,36,277,12,1,39,239,232,33,29,-24,35,82,76,67,14,-10,42,-46,59,-27,20,-17,17,-376,15,-7,19,-8,56,149,-25,-39,14,-8,6,-381,-599,-427,4,12,17,246,389,282,24,-1,7,14,-270,-285,-30,38,-35,154,-91,27,11,-10,-17,136,-15,4,-11,5,-33,45,50,53,-4,10,-6,-1,-121,0,7,-11,13,202,70,-23,4,-5,5,-233,-130,-42,4,9,6,-10,11,-42,-10,9,-13,115,-12,104,-3,-27,-5,-13,-17,-40,0,16,-7,-31,25,-27,-5,5,1,-32,-36,25,up
-97,19,-120,203,-934,-563,-28,11,-56,31,471,169,-7,-10,-17,-421,485,397,-2,-8,11,-21,359,178,11,3,55,3,368,355,26,-27,69,108,97,-63,29,-2,44,-121,-99,-83,32,-27,25,0,167,103,-2,6,24,184,-159,-229,21,4,11,-331,-36,67,17,-2,6,153,-68,-82,3,17,-4,64,-243,-123,5,-27,-9,96,144,24,2,23,5,-61,-237,-67,8,-13,-7,-71,-61,-37,-11,29,-12,61,-10,14,2,-12,-4,143,-30,0,7,6,-4,-60,-55,-25,-2,9,-6,53,-78,-19,1,-8,-2,4,-19,9,1,5,0,20,-76,-66,-1,-5,-6,19,31,-20,-1,8,0,-43,2,75,-3,0,-5,83,7,0,-3,-16,1,-70,62,22,2,14,-2,4,-44,-21,1,-5,0,-32,22,39,0,0,2,57,-2,-71,-1,-4,2,-48,13,37,3,9,1,1,-47,-22,up
46,-74,144,162,-134,192,15,10,10,-228,-488,-181,-23,40,-48,186,51,-181,-27,15,-51,135,-434,-158,-44,12,-91,-63,391,-34,-6,25,-54,-264,-354,-74,-32,14,-53,348,622,9,-49,-9,-51,-464,19,250,-20,11,-15,41,559,254,10,-11,44,-31,244,211,35,-17,74,364,193,-24,69,-17,61,-183,-61,4,-3,20,39,-136,-258,31,30,-52,27,77,143,-3,-4,15,13,-67,-322,-154,-4,-9,13,237,152,-60,-6,-6,4,-299,-173,-59,1,-5,-14,262,168,6,7,20,-14,-276,-216,-47,-11,7,-14,105,65,110,12,-4,0,136,46,-79,0,10,4,-103,-192,29,-3,-1,-11,65,-20,-11,3,3,-12,105,28,-15,0,-7,-3,-102,-85,-35,-15,6,-12,4,53,6,9,-4,4,41,28,13,1,4,2,-51,4,22,-9,-2,-7,20,51,23,9,0,10,3,-42,-1,up
45,-42,150,26,-311,102,7,-19,14,473,-366,-316,-17,8,-63,-545,-4,134,-30,51,-86,395,-343,-536,-54,22,-109,-441,132,202,-34,24,-68,363,191,-321,-23,15,-47,-323,288,468,-6,-30,26,-165,412,300,-3,0,38,-76,272,164,29,-13,65,196,202,-18,19,-13,49,102,-13,-34,27,-1,24,25,-38,-68,-7,-11,23,-160,102,102,40,-13,8,-5,31,-58,-23,20,18,-222,-180,53,34,-16,13,348,81,-86,-6,-7,1,-67,-232,-82,11,3,-5,6,-12,43,-8,10,-15,-56,-108,-124,-1,12,-10,-14,25,196,6,-10,4,205,-50,-137,-5,-5,-20,14,-75,-31,-5,8,-6,-68,63,104,12,-12,0,103,-120,-66,-9,12,-3,-180,75,8,-4,8,-10,81,17,-19,4,4,2,22,45,24,5,-5,5,-13,-33,27,1,-17,-1,-55,-16,-65,2,5,-2,-59,10,7,up
51,-40,145,157,-283,41,-5,-4,-9,198,-338,-158,-28,17,-38,-81,-217,-119,-39,19,-86,-26,-183,-157,-7,30,-52,41,177,-132,-22,21,-84,-260,44,190,-31,-11,-37,270,400,-122,-24,14,-21,-399,110,343,-7,-3,20,79,459,237,2,-17,50,31,304,194,46,-20,60,80,37,-192,8,-3,35,-13,158,136,32,-12,30,-463,-136,138,5,15,17,419,144,-148,31,-14,26,-346,-274,-8,-12,15,-11,313,38,-30,6,-6,6,-171,-382,-186,2,-3,-18,207,97,20,4,16,1,-56,-81,-90,3,-16,-1,-46,156,148,9,8,12,75,-141,-115,1,5,-19,-65,-82,74,-10,10,-10,56,-37,-46,-1,2,-9,79,15,18,5,-12,1,39,5,8,0,7,-2,-75,-39,-41,-9,9,-11,0,-37,25,4,-10,-1,98,78,-43,0,13,1,-65,-77,37,-2,-14,5,37,59,-7,up
49,-52,140,106,-428,-20,1,7,3,0,-224,-60,-7,8,-39,121,-320,-245,-40,24,-49,-168,-173,-75,-37,20,-61,93,44,-37,-32,16,-82,-87,135,57,-23,5,-48,-143,386,66,-33,2,-40,192,74,-153,-11,7,-24,77,487,148,-3,-3,38,-510,400,641,31,-23,67,257,314,-19,34,-5,59,143,-199,-23,16,-16,37,-370,123,331,31,-27,21,238,33,-446,2,9,30,-391,-335,111,22,-14,-4,363,-194,-533,-26,41,-5,-156,163,238,1,-18,20,-187,-10,24,14,-1,-12,420,228,-7,12,2,1,-230,-301,77,1,18,-5,173,-44,-96,1,-4,-12,-16,-129,38,1,5,-14,146,-28,-6,-5,0,-12,-71,-89,-57,-3,1,-2,-129,-20,87,-5,-1,-11,126,67,-57,0,3,1,-20,-6,13,-2,-1,8,-15,-15,-17,6,-8,1,-23,-21,-11,-1,10,-2,29,-2,35,up
42,-58,145,136,-175,200,11,-1,17,69,-500,-220,-13,33,-71,2,-167,-279,-30,33,-68,69,-242,-200,-48,-10,-93,-18,145,-98,-34,23,-70,-11,10,-35,-41,1,-46,-109,572,116,-5,8,-5,-199,322,376,5,0,23,-128,341,309,5,-2,63,162,291,190,27,-25,57,73,67,67,22,-32,54,-50,-137,-89,12,9,10,-195,62,16,15,-6,-2,-23,-92,-112,8,-19,37,82,-194,75,-2,-7,-4,-50,68,-380,18,19,5,-138,30,22,5,21,0,-39,79,177,17,1,7,288,-261,-156,-16,3,-20,-62,22,96,12,-11,-7,218,-131,-184,-7,24,-20,-128,-38,196,-5,-5,-10,146,-58,-121,0,-6,-5,-144,41,-14,-3,5,4,42,-27,23,-2,5,0,5,-14,-5,0,-5,2,-32,-2,58,-3,1,-5,47,32,-23,1,-1,2,5,5,36,8,-3,2,-102,-42,-49,up
45,-57,143,149,130,152,18,27,1,-210,-599,-66,-30,21,-65,257,42,-134,-40,16,-72,173,-440,-373,-43,4,-88,188,319,-126,-14,1,-38,140,-314,-504,-21,24,-44,-502,500,540,-15,13,-9,-507,160,568,-12,-1,4,97,315,21,8,0,48,91,539,389,41,-39,75,365,-36,-447,30,-46,36,-164,251,379,14,23,27,-593,-119,-65,57,10,51,441,-255,-95,-29,2,-3,-514,33,135,33,4,10,606,-480,-333,-33,10,-18,-9,328,18,24,-27,9,74,-156,13,-23,29,-34,-66,-111,42,6,-17,-22,10,-185,-120,-14,7,-28,70,139,-40,-9,21,8,-120,58,130,16,-17,13,22,-207,-131,-9,19,-14,-14,201,80,16,-21,16,122,-124,-97,-21,25,-11,-153,62,111,6,-3,-3,278,8,-117,4,-21,7,-152,50,98,0,6,-2,21,-35,-76,-5,12,0,-122,-69,54,up
48,-65,137,204,-164,39,4,6,10,-17,-541,-335,-19,26,-43,139,-92,-156,-23,14,-49,-79,-550,-80,-15,33,-83,301,239,-359,-49,1,-86,-557,160,647,-46,-15,-53,462,268,-311,-26,11,-46,-299,611,369,-16,7,27,-135,395,364,27,-14,71,56,434,92,36,-25,62,-58,103,46,40,-12,55,-68,61,25,0,14,20,-140,-117,-28,35,-13,25,-84,-91,-208,-8,11,1,260,68,34,31,-39,27,358,-370,-198,-6,40,-36,-444,78,120,15,-37,38,84,-295,-10,-7,12,-12,128,-149,-190,-12,27,-24,-273,-216,130,-19,10,-36,350,149,-19,4,-8,-5,-76,-64,71,3,-10,-4,6,59,-56,-1,7,-1,-68,-28,11,-2,11,6,20,25,33,9,-16,2,39,-3,-68,-7,-3,-10,-165,16,119,-6,7,-8,109,39,-87,6,-4,8,-38,118,28,17,-8,24,37,-150,-91,up
33,-28,150,20,-523,27,7,21,-32,637,-404,-518,-37,1,-75,-229,-105,-63,-20,24,-73,-304,-228,108,-56,19,-94,130,414,4,-42,15,-44,-265,127,251,-17,-11,-48,287,456,5,-27,-19,6,-267,402,361,2,-4,31,-301,396,270,33,-7,80,303,146,-110,35,-20,61,-113,5,-106,14,-1,40,89,-4,-31,13,8,23,-375,-43,161,30,-21,8,375,-56,-102,-11,37,-10,-266,-79,129,38,-36,23,96,-101,-172,-11,10,-8,74,42,-51,-1,24,-9,-181,-173,64,-9,9,-15,263,34,-150,12,-11,4,-29,-61,62,-5,8,-8,50,-148,-82,2,4,-7,-114,-1,67,12,-6,4,218,-46,-110,-18,5,-19,10,-30,68,6,0,0,-25,-37,-35,-2,-1,-3,-54,12,-1,0,0,-1,19,7,-1,-4,7,-6,32,60,4,2,-19,7,-63,-31,-11,-4,12,-4,46,60,-34,up
56,-51,145,300,-315,2,7,-16,8,-15,-625,-267,-28,43,-56,184,72,-148,-41,27,-72,-514,-523,165,-44,24,-107,218,401,-105,-37,11,-80,144,464,-102,-17,-2,-27,-116,296,241,13,-30,34,-194,262,351,-8,-11,23,-256,105,76,6,5,50,-146,258,253,20,-9,34,300,247,-202,21,1,41,-295,-178,71,22,-3,18,306,490,87,24,-10,38,-261,-498,-139,6,8,-2,186,289,-99,20,-27,14,-507,-267,220,24,27,-9,502,-12,-397,-12,24,0,-124,-247,159,7,-10,-13,194,-103,-168,0,10,-15,124,-120,-41,-1,6,10,-107,33,231,-11,-11,-8,230,-262,-269,-4,-4,-8,-340,117,278,-2,2,-3,316,-82,-217,-7,5,-7,-170,104,88,1,-1,-3,143,-10,-26,-1,-7,-3,-75,-43,-37,-8,4,-7,-62,62,84,3,-7,3,48,30,-38,4,-6,-3,-77,73,18,up
35,-31,155,14,-330,73,22,-17,8,360,-457,-481,-20,40,-77,-276,-329,105,-35,7,-87,-50,-122,-277,-45,47,-80,335,41,-268,-69,8,-86,217,590,238,-18,-24,-16,-637,215,368,-2,6,10,114,580,317,15,-22,59,-225,133,225,39,-4,56,231,220,-29,14,-14,34,-337,-185,-23,22,-13,23,7,247,112,-13,23,23,-59,-139,-201,47,-6,31,-249,-42,186,-3,-6,10,331,16,-256,-1,18,14,35,-165,-67,24,-11,8,57,3,-123,-2,13,-13,194,-303,-56,-4,1,-9,-124,45,196,-14,-6,-22,269,-64,-127,9,-3,-5,-126,-46,117,-9,4,-14,-21,-78,-150,-6,13,-14,-25,65,120,-6,1,-9,60,52,-10,10,-10,11,-87,44,20,5,9,5,80,-11,-41,-2,-13,1,-37,-40,36,-2,9,-4,10,30,4,2,-10,3,-21,-59,-25,-4,7,-7,-25,47,-17,up
46,-45,166,-65,-88,280,16,-11,36,353,-552,-515,-12,29,-68,25,-44,126,-33,9,-52,432,-314,-463,-32,11,-95,-371,-221,59,-40,24,-127,-275,160,-80,-42,8,-48,536,692,-141,-10,5,-8,-448,107,368,5,-11,23,-4,600,412,21,-26,65,-167,54,294,5,5,46,41,31,3,25,-33,38,-56,41,146,-18,11,15,-338,-56,60,22,-34,32,144,283,-43,18,15,-5,97,32,53,19,-8,29,-400,-450,-242,9,8,-25,136,250,-205,9,32,19,-34,-316,185,7,-11,18,296,-83,-421,11,10,-11,-201,151,209,19,12,25,305,-318,-122,-12,-23,-17,70,88,55,-4,13,-23,66,-171,-99,-27,13,-32,-208,-94,96,-5,1,-18,194,30,-92,-1,-12,4,-93,104,96,1,0,9,10,29,11,0,3,3,8,56,-33,6,-3,8,-14,7,73,-5,-3,-4,8,-41,-67,up
52,-28,147,90,-487,96,7,-9,-15,269,-391,-443,-60,28,-71,-78,104,128,-10,-5,-33,226,63,-213,-36,-1,-39,-321,-176,135,-21,2,-64,-47,112,16,-16,12,-48,51,213,-251,-14,19,-47,-306,301,438,-19,-2,-11,260,290,-54,-1,-17,39,-338,366,427,13,-5,58,127,134,-105,31,-13,47,-106,119,187,11,-4,28,84,-18,-229,15,3,14,-185,-300,33,12,14,-10,-148,205,130,-8,1,33,87,-203,-55,40,-8,12,351,232,-186,5,-19,19,-301,-280,37,3,-1,3,338,-109,-259,-5,17,-9,-326,-46,184,7,-1,10,158,10,-18,-2,18,-35,-50,-123,59,-10,3,-17,22,-94,8,-12,2,-18,136,140,-23,7,-9,6,5,22,36,2,-5,4,25,20,-20,5,2,6,-61,-36,-61,-2,2,-2,8,-26,10,-2,2,-6,34,108,4,11,-2,9,-42,-161,-38,up
-92,8,-130,354,-697,-368,-22,1,-28,-45,114,55,-27,-6,-27,-201,488,222,-7,-8,17,-313,434,395,10,-10,38,22,414,-2,38,9,56,-76,60,94,34,-8,34,-102,-30,-81,21,24,32,82,-66,-44,33,-3,20,101,3,-57,-5,13,18,-8,-281,-137,25,-34,23,40,25,63,-11,10,-7,107,40,-78,24,-14,11,21,-338,23,-21,9,-21,1,93,-42,-9,5,-11,-172,-286,-1,-5,-2,-1,250,236,47,6,4,-11,-48,-149,-37,15,1,-1,-26,-11,23,-11,16,-21,76,23,-42,5,-4,3,-51,-77,31,-10,-12,-1,-7,54,15,11,6,-1,40,-47,-60,-10,-4,-6,-32,64,15,2,-3,7,-34,-8,32,5,6,4,-8,-16,-23,-4,5,-7,-8,-76,-18,6,2,3,73,30,67,-1,-13,-4,-30,-62,-58,-6,12,2,20,98,120,7,-14,-2,58,-37,-121,up
37,-31,153,-12,-230,155,12,3,-24,362,-508,-518,-46,31,-87,4,-166,-78,3,18,-79,546,30,-455,-55,3,-88,-769,-67,363,-39,-15,-46,16,781,140,-26,4,-4,-366,-275,64,-18,12,-13,-121,516,420,3,1,35,-112,166,320,19,-9,61,325,352,-117,31,-30,44,-312,-10,122,38,4,38,426,184,-281,8,-3,19,-256,-85,116,26,2,42,-399,-150,-24,14,-11,13,467,58,-122,18,11,9,-410,-397,112,-12,4,3,717,1,-413,0,9,-13,-394,-48,308,-10,-6,-20,214,-155,-227,-14,13,-23,-24,103,253,4,-18,-1,91,-162,-140,4,8,-10,101,173,-17,-1,-7,0,-216,-137,64,-8,5,-8,112,42,-93,1,9,-4,-58,36,60,5,1,-1,19,-12,-14,-2,-12,9,11,2,27,4,-2,3,-19,-40,-36,-6,13,-3,-15,-1,-27,1,-3,-8,80,27,31,up
28,-67,139,137,-111,-25,17,-14,26,261,-367,-252,-10,10,-31,-395,-258,22,-29,26,-76,-266,34,-1,1,60,-72,16,-140,-76,-36,28,-71,224,379,74,-27,-2,-64,-159,-286,-87,-44,-1,-33,413,406,-131,-20,-17,-12,-584,416,655,-2,-3,48,46,162,22,18,-2,49,385,490,119,38,-9,51,-314,-65,61,39,-18,56,105,-47,-147,21,10,-11,75,215,-77,15,-44,29,-227,-47,143,7,39,17,-27,-251,-282,17,5,22,-210,-269,118,-3,-2,10,460,-82,-240,19,-14,8,42,-268,60,-18,1,-17,65,107,-46,-2,7,-27,-105,-146,118,-9,-1,-25,69,35,-47,-12,13,-15,-16,-42,27,1,-3,7,-17,69,67,-5,-12,-2,148,-26,-114,-1,-3,-7,-265,-5,89,-3,0,-4,228,21,-174,6,4,-1,-95,122,107,-13,0,5,-146,-62,79,4,2,4,-8,16,-24,up
53,-51,146,215,-71,-94,17,-22,10,277,-301,-221,-34,3,-64,-400,-312,-61,-34,37,-66,-221,-162,179,5,49,-43,512,18,-557,-34,36,-72,-426,150,470,-33,-20,-30,264,110,-143,-46,-2,-66,-175,43,210,-33,0,-4,-10,548,154,9,10,17,-245,308,255,24,-16,63,178,455,215,51,-5,60,256,-134,-304,17,-11,31,-292,-11,280,42,3,26,-184,-172,72,10,-25,63,837,-127,-445,-5,-9,16,-548,-112,54,20,-15,-14,1,58,130,-19,0,-27,71,85,-146,18,24,-3,-375,-257,204,-23,-5,-19,561,-1,-386,-9,10,-9,-405,113,314,19,-9,20,323,-10,-39,9,-7,-6,14,-120,-158,-2,16,-16,-279,-153,144,-9,-1,-25,290,19,-268,-4,1,-7,-257,57,129,7,7,7,103,-16,-62,-7,5,7,-22,70,58,8,-2,7,-38,-150,-50,-7,0,-6,65,138,95,up
57,-84,124,275,-315,-238,-12,-7,44,-211,-104,133,18,21,-15,27,-549,-331,-38,90,-85,-104,36,-49,-39,3,-85,-181,-366,130,-56,17,-113,522,395,-334,-21,13,-44,-383,111,367,-32,-33,-33,155,619,22,8,18,25,-342,125,402,-1,-29,54,122,454,166,30,-9,62,8,97,21,15,-5,29,57,-55,-87,23,-16,48,-251,-17,126,9,28,32,401,-27,-440,24,-32,21,-566,-51,349,-3,27,-16,409,72,-265,1,6,-2,-193,-147,198,16,-31,9,510,26,-295,4,31,-18,-290,23,242,9,-39,5,368,-335,-384,-11,11,-18,-601,268,388,7,19,-5,359,-286,-275,-6,-16,0,-308,104,313,11,0,-1,321,-135,-302,-7,10,-6,-252,31,241,1,9,-3,102,-85,-194,0,-3,-8,-109,57,188,-4,-9,-3,239,20,-201,5,14,4,-118,-17,100,-5,0,-3,40,-1,-50,up
28,-68,140,105,-523,-193,1,-11,7,107,-156,-198,-12,31,-36,-362,-71,143,-12,40,-58,249,-261,-114,-29,17,-88,-146,-86,-19,-12,49,-88,104,292,42,-41,-12,-43,84,43,-11,-53,-32,-34,139,346,-70,-25,-11,-1,-499,510,516,4,11,49,25,490,219,44,-9,74,-2,90,45,40,-9,47,-44,93,-47,23,19,35,-120,-108,175,15,-14,26,97,76,-241,20,-11,27,-22,-441,-246,-17,8,-6,141,220,58,27,-18,4,-30,-194,-57,-11,30,-5,24,-29,13,8,-19,19,2,102,-3,17,9,4,235,-252,50,7,-4,-7,-149,64,-4,-11,18,-26,103,-290,-110,-10,0,-30,-121,95,151,-4,-14,-2,328,-33,-233,-3,7,-7,-401,-14,287,4,2,8,215,22,-207,4,-8,1,-64,89,125,-3,-5,-3,117,-140,-97,-2,4,-6,-161,71,11,0,12,-4,-21,-28,-20,up
31,-23,173,199,-70,203,34,-38,37,362,-591,-370,-19,10,-63,-226,-135,-26,-27,27,-80,-524,-278,311,-41,8,-117,395,-101,-567,-49,11,-74,36,556,-146,-18,4,-29,-179,128,225,-8,22,-13,-186,321,133,-2,2,-2,-123,378,359,1,12,42,151,120,63,17,6,46,262,-71,102,12,-17,44,194,392,101,18,-49,33,63,-165,-207,-5,3,18,-131,215,212,18,-40,42,-401,-101,-158,36,-18,22,-397,-52,47,2,31,-5,799,27,-353,16,3,9,-696,-360,163,-8,43,-44,402,-16,-106,-10,-7,-13,-21,65,209,13,-12,10,71,-71,-69,0,6,-6,-7,-51,4,-4,2,-7,-18,-137,-98,-9,8,-17,2,119,115,15,-7,9,55,-113,-103,-3,-3,-3,-41,44,55,-1,-5,-8,12,-70,-69,0,7,1,-82,20,-11,2,4,5,19,3,-11,-5,6,-4,37,-8,24,up
35,-52,157,162,-2,120,33,-33,30,183,-600,-384,-17,60,-65,-515,-241,155,-31,19,-51,470,-242,-291,-52,5,-117,-340,-171,98,-22,25,-86,281,497,-255,-25,10,-61,129,-7,55,-36,-25,-20,-243,575,273,-1,-1,24,-367,365,397,2,19,59,173,231,27,19,-32,58,126,282,159,32,-3,60,1,-24,-160,-1,-11,36,-70,-202,48,36,6,25,-240,32,-74,-5,4,-16,261,-119,-137,-8,-29,10,-134,9,134,3,26,-17,-17,-75,-152,14,-21,20,161,36,128,22,9,36,72,14,-63,13,4,-1,-154,-177,-87,-15,-5,-42,235,-86,-57,-7,22,-28,-268,-31,155,-1,10,-8,151,-19,-11,2,-19,3,-46,-19,-45,0,-5,2,-58,-14,-6,-1,10,-8,37,-18,1,-1,-1,0,35,81,26,2,-11,1,73,-23,-91,2,2,5,-136,-35,57,-1,13,-6,85,42,-17,up
31,-35,152,-54,-78,213,32,-17,52,199,-623,-185,-25,-10,-29,239,-239,-190,-12,39,-77,-412,-88,-68,-13,30,-92,498,-690,-389,-72,8,-159,-205,704,-144,-16,30,-43,-143,203,301,-38,-27,-34,205,594,-89,-14,13,20,-821,426,934,0,-15,52,352,344,-159,28,-12,62,5,293,201,42,-6,88,-54,-3,71,29,-18,29,213,-174,-449,10,26,3,-501,-228,389,-2,-21,22,365,3,-349,7,1,8,-163,-58,152,7,-1,32,156,-175,-251,17,-5,-3,98,47,-22,2,16,0,-147,-163,102,-7,-6,-30,269,-129,-189,-7,7,-32,-184,-17,209,-5,-1,-3,240,-58,-121,-2,0,-7,-189,-36,108,-9,-3,-12,202,81,-101,8,5,7,-248,-69,81,-7,-7,0,285,10,-69,0,-9,3,-191,18,19,-3,17,-4,-29,-39,15,11,8,-14,164,157,57,5,-24,16,-175,-171,-102,up
