AccX1,AccY1,AccZ1,GyrX1,GyrY1,GyrZ1,AccX2,AccY2,AccZ2,GyrX2,GyrY2,GyrZ2,AccX3,AccY3,AccZ3,GyrX3,GyrY3,GyrZ3,AccX4,AccY4,AccZ4,GyrX4,GyrY4,GyrZ4,AccX5,AccY5,AccZ5,GyrX5,GyrY5,GyrZ5,AccX6,AccY6,AccZ6,GyrX6,GyrY6,GyrZ6,AccX7,AccY7,AccZ7,GyrX7,GyrY7,GyrZ7,AccX8,AccY8,AccZ8,GyrX8,GyrY8,GyrZ8,AccX9,AccY9,AccZ9,GyrX9,GyrY9,GyrZ9,AccX10,AccY10,AccZ10,GyrX10,GyrY10,GyrZ10,AccX11,AccY11,AccZ11,GyrX11,GyrY11,GyrZ11,AccX12,AccY12,AccZ12,GyrX12,GyrY12,GyrZ12,AccX13,AccY13,AccZ13,GyrX13,GyrY13,GyrZ13,AccX14,AccY14,AccZ14,GyrX14,GyrY14,GyrZ14,AccX15,AccY15,AccZ15,GyrX15,GyrY15,GyrZ15,AccX16,AccY16,AccZ16,GyrX16,GyrY16,GyrZ16,AccX17,AccY17,AccZ17,GyrX17,GyrY17,GyrZ17,AccX18,AccY18,AccZ18,GyrX18,GyrY18,GyrZ18,AccX19,AccY19,AccZ19,GyrX19,GyrY19,GyrZ19,AccX20,AccY20,AccZ20,GyrX20,GyrY20,GyrZ20,AccX21,AccY21,AccZ21,GyrX21,GyrY21,GyrZ21,AccX22,AccY22,AccZ22,GyrX22,GyrY22,GyrZ22,AccX23,AccY23,AccZ23,GyrX23,GyrY23,GyrZ23,AccX24,AccY24,AccZ24,GyrX24,GyrY24,GyrZ24,AccX25,AccY25,AccZ25,GyrX25,GyrY25,GyrZ25,AccX26,AccY26,AccZ26,GyrX26,GyrY26,GyrZ26,AccX27,AccY27,AccZ27,GyrX27,GyrY27,GyrZ27,AccX28,AccY28,AccZ28,GyrX28,GyrY28,GyrZ28,AccX29,AccY29,AccZ29,GyrX29,GyrY29,GyrZ29,AccX30,AccY30,AccZ30,GyrX30,GyrY30,GyrZ30,Label
2,160,-10,-5684,26,1551,-3,77,-39,404,523,-477,-3,62,-42,1368,-91,-200,-29,4,-89,2015,-265,-649,-6,34,-30,933,-17,53,2,-20,2,690,-143,-247,2,3,2,1285,-232,-295,4,-15,35,2160,-392,-577,17,-15,53,2604,-506,-745,5,-38,59,-1542,1086,679,19,-111,62,-2204,39,493,-7,-24,5,258,70,-113,2,-37,7,165,-433,-176,1,-16,-10,-451,3,135,-11,-52,-1,-288,150,27,-1,-25,-7,-563,53,157,-12,-21,-16,-500,63,277,0,-16,4,-294,46,91,0,0,-6,-496,69,153,7,-4,11,-48,38,-43,1,5,4,60,-41,-59,1,3,-4,-43,-38,-11,-1,5,0,45,38,-8,5,-1,4,-71,-11,12,-1,3,-1,117,-32,-54,-2,3,-1,-17,-18,28,3,-5,2,90,-9,-35,-4,6,-2,-91,14,28,3,-1,6,93,23,-31,-3,1,-8,-8,-25,12,t_right
35,142,64,-5411,493,1226,-21,80,-55,-797,-383,300,-17,33,-67,98,484,-374,-12,109,-91,1263,16,-158,-27,-6,-95,2389,-407,-469,-18,8,-44,1868,-40,-338,10,-3,27,983,-32,-102,10,1,22,1271,-565,-309,0,-4,30,2562,-363,-728,16,-14,81,2618,-376,-610,4,-59,52,-475,834,249,24,-143,106,-2772,816,831,14,-82,32,-195,-846,-427,-29,-7,-68,-842,-333,326,-9,-34,-11,-1228,566,533,5,-39,-4,-1204,214,252,3,-4,12,-571,165,64,8,12,24,111,-51,-112,0,18,-7,23,-92,15,4,-6,0,264,-47,-82,1,5,-6,-184,-19,12,0,2,5,108,-1,-30,0,6,-2,-1,-46,-10,-1,2,-4,7,31,6,5,-10,12,95,45,-42,-2,8,-8,-30,-144,-58,-3,3,-6,72,137,23,4,-12,20,-43,-78,-9,-4,6,-13,74,10,-28,3,-2,1,-81,51,76,t_right
40,138,72,-4063,472,1076,-33,75,-100,-1031,-439,404,-2,67,-40,-397,550,168,-17,54,-53,1368,-483,-276,-28,3,-107,724,-62,-462,-21,9,-22,1958,-363,-752,-9,14,-46,1412,184,-149,9,-12,39,1033,-44,-193,12,2,30,2295,-290,-651,11,1,49,2336,-79,-589,11,-33,67,427,226,115,24,-110,68,-2424,761,911,19,-79,67,-18,-244,-411,2,-32,-9,-1340,-118,365,-4,-25,0,-630,-249,-99,-7,-38,-12,-34,-26,-41,-8,-21,-15,-950,70,392,-1,-15,-2,-388,109,84,2,-4,9,-383,28,143,1,12,1,-306,-29,67,6,2,10,505,42,-191,-3,2,-9,-277,-57,100,0,2,4,92,55,2,3,-1,2,96,-43,-30,-4,4,-1,-79,5,23,0,-1,0,134,-12,-45,3,-6,2,23,-1,-4,1,4,-5,-20,31,15,0,-6,9,69,18,-9,0,1,-6,-117,-54,-29,t_right
33,140,61,-4027,201,1278,-32,42,-89,-848,-346,355,-7,63,-30,737,317,-501,-19,63,-41,598,-318,-189,-21,13,-77,997,137,-371,-10,33,-25,865,34,-239,-8,-7,-23,778,75,40,2,-6,-6,695,-102,-282,0,3,-2,982,-128,-276,12,-3,49,2342,-368,-616,13,-11,49,3085,-300,-744,13,-60,57,857,303,-272,6,-96,49,-4228,948,1583,36,-121,78,338,-306,-435,-19,2,-64,-1751,-256,408,-4,-30,14,182,246,-71,4,-26,4,-630,-148,220,-5,-7,-14,-454,3,82,2,-14,-6,-419,60,113,1,-7,2,-435,-14,74,3,13,13,184,56,-35,-1,3,0,53,-75,-53,0,4,-9,-139,13,54,2,4,8,241,-32,-63,0,-2,-8,-145,10,32,-1,2,7,14,-12,-18,1,-2,-1,204,40,-85,-1,4,2,-142,-95,31,0,-2,-3,77,80,-34,1,-1,3,-60,-18,-67,t_right
-11,284,-95,-3811,158,1467,-22,46,-55,1453,-320,-542,-20,1,-55,818,135,-524,-6,27,-11,676,-99,-99,4,-10,-10,1387,9,-383,8,10,14,1246,-114,-280,13,-10,57,3221,-446,-799,5,-34,48,1843,-17,-408,1,-96,35,-3110,1074,1083,54,-116,127,-670,-204,-112,-8,-5,-42,-1019,-425,73,-24,-38,-8,199,7,-102,-3,-39,-19,-820,46,328,-3,-31,6,-465,16,157,-3,-14,-12,-635,123,94,-3,4,9,-253,31,108,0,-4,4,0,50,-11,0,6,-5,-271,-4,146,5,2,12,234,34,-57,2,0,-8,-114,-6,8,-1,7,-1,16,15,0,-2,1,2,-50,-20,39,2,-3,8,202,-32,-66,-2,0,-10,-45,-70,11,1,2,2,-34,113,44,2,-10,10,44,-64,-64,-4,8,-12,27,22,37,4,-7,13,-55,13,-28,-1,3,-7,143,-33,-32,-2,0,-2,-129,41,21,t_right
64,135,67,-4501,1030,1521,-21,94,-61,940,-1308,-418,-37,44,-75,-410,599,149,1,57,-18,297,-90,23,-14,-14,-41,1231,-179,-582,-23,53,-71,912,-149,-391,4,-3,-22,853,81,-103,-8,-1,3,742,7,-173,4,2,21,941,-223,-191,13,-8,35,2190,-430,-653,9,-11,41,2882,-363,-884,0,-69,48,-843,566,347,19,-107,79,-2800,626,916,13,-37,27,223,-391,-219,-10,-47,-19,-966,-21,194,-6,-2,3,-206,-118,53,-9,-40,-6,-21,164,15,-4,-19,-11,-968,30,333,-5,-15,-3,-70,184,56,4,-12,1,-530,60,67,4,15,7,-124,19,63,2,0,5,132,-17,-44,-1,16,-13,-283,9,170,10,-7,20,387,-30,-146,-4,1,-11,-87,-136,-83,1,8,-3,78,122,38,1,-13,13,121,-85,-82,-5,9,-14,-183,1,62,7,-5,9,170,70,-19,-4,1,-5,-260,-72,39,t_right
46,139,62,-4620,702,1704,-36,50,-70,530,-962,-287,-21,67,-83,-244,425,-194,-9,64,-40,699,-8,-380,-39,6,-62,1230,23,-291,2,17,-43,794,215,-279,-2,10,-5,1408,-303,-188,5,-16,-3,570,-147,-169,1,9,12,1564,-334,-445,13,-8,42,2443,-306,-746,18,-16,68,2323,-193,-533,4,-63,49,-1225,548,540,17,-107,56,-3990,856,1279,18,-62,46,1265,-417,-775,-8,16,-25,-1525,70,662,6,-39,21,763,-169,-498,-2,-16,-26,-763,6,321,2,-30,8,407,22,-213,-8,-21,-10,-508,-140,148,-6,-12,-19,-528,90,222,2,-14,15,-391,21,82,-1,3,-3,-171,19,23,3,9,-1,-275,77,114,1,-1,12,397,-19,-197,-3,11,-9,-352,-82,124,6,-1,9,411,64,-49,-2,1,-4,-285,-77,14,1,1,3,218,78,-19,2,-1,4,-104,-87,0,-3,7,-8,108,17,10,t_right
25,159,28,-3906,226,1213,-21,48,-61,-410,30,262,-5,64,-29,336,36,-167,-14,26,-48,560,-115,-192,-26,18,-66,627,62,-525,-17,34,-51,1112,-166,-198,-6,-9,-34,917,56,-175,2,2,10,553,101,-98,1,-6,10,816,-283,-271,4,-2,9,583,-77,-166,6,-3,30,2540,-486,-922,25,-17,58,-551,161,227,14,-35,52,1208,-148,-696,6,-19,37,-2237,573,1115,14,-76,41,-531,-12,13,-2,-6,11,832,-105,-178,3,-29,8,-825,134,402,-4,-53,9,896,-185,-320,1,-29,-7,-895,69,369,1,-36,3,104,26,-166,-7,-14,-9,-908,-51,310,-4,-17,-5,-104,128,50,-1,-12,0,-761,27,194,3,-4,1,-247,93,18,1,14,7,-137,-11,14,2,12,6,202,12,-85,0,4,-4,57,-60,12,1,-4,1,167,29,-55,-1,5,2,-77,-48,14,2,2,-2,38,43,7,t_right
0,158,-14,-3866,-99,1475,-14,55,-40,100,119,-87,-15,46,-39,-150,123,-233,-25,44,-68,215,172,-83,-13,19,-53,669,-106,-399,-20,1,-42,1051,-91,-237,-4,-8,-30,1376,-111,-318,-3,-1,-10,748,10,-179,5,0,11,514,-38,-89,10,3,30,972,-218,-302,10,6,41,2172,-466,-706,18,-5,38,1372,-102,-512,11,-30,53,-1029,348,443,20,-70,82,-656,206,390,6,-66,25,-938,114,190,4,-34,23,31,129,-143,5,-54,20,-204,-156,-7,-7,-17,-28,-861,-49,301,-9,-38,-5,-442,173,168,0,-13,-7,-1227,68,400,6,1,17,-87,93,2,4,17,8,-16,-135,-2,-4,6,-10,221,70,-69,6,-2,4,-98,-76,46,-3,1,1,254,37,-108,3,5,-2,-183,-18,70,0,1,3,140,-58,-39,-3,1,-8,-157,52,62,3,0,6,192,-20,-73,2,0,1,-231,-26,93,t_right
-3,159,-40,-3442,407,967,3,65,-34,-66,96,145,-20,46,-64,-103,188,204,-5,13,-37,432,-170,-217,-26,12,-39,1509,-503,-491,-22,-5,-56,834,124,-232,-4,1,-8,863,-107,-387,11,4,15,554,-31,-92,-1,-4,11,1794,-350,-672,9,2,23,403,200,-89,25,-30,58,-37,152,-236,20,24,50,170,-283,98,2,-62,25,-737,-42,282,5,-16,32,663,-85,-413,5,-39,16,0,89,-88,0,-51,29,22,165,4,10,-34,17,-616,70,461,-5,-58,7,-429,-29,74,1,-21,-10,-302,10,295,-8,-24,-2,-344,-69,28,-2,-10,-6,-437,91,200,1,-13,1,-334,91,59,-2,-1,0,-410,43,136,3,3,10,-1,54,-47,0,13,-2,71,-103,0,-6,0,-13,14,53,90,14,-7,16,-69,85,-51,-2,4,4,207,-244,-196,-9,6,-23,-121,225,146,14,-7,31,-69,-136,5,t_right
-10,156,-41,-1950,218,577,14,61,-14,-2179,225,913,-24,35,-68,116,6,-119,-13,51,-56,270,483,-321,-7,52,-14,1070,-806,-98,-27,-40,-79,604,45,-280,-14,10,-17,1340,-190,-458,0,-13,-25,309,160,-106,0,5,5,804,-234,-300,5,2,14,485,-102,-140,3,6,11,1779,-375,-583,25,9,69,1374,-185,-284,12,-16,46,1749,-100,-528,22,-84,71,-2319,601,616,10,-31,45,464,70,-213,-4,-41,15,-1563,157,774,6,-62,32,230,-33,-81,4,-30,2,-237,-53,215,-5,-43,-10,-391,-76,-131,-3,-25,-13,-721,90,211,-6,-26,2,-500,-2,175,-5,-9,-7,-622,91,136,3,5,4,-341,82,94,3,10,14,59,0,-67,0,9,-4,138,28,-21,0,6,4,121,-54,-4,1,-4,-10,-80,6,-2,0,2,6,84,-12,-21,-3,1,-7,-56,12,11,4,0,10,117,-36,-41,t_right
14,164,-21,-2658,150,766,-5,44,-23,-529,219,246,-8,41,-30,-181,18,186,1,25,-38,120,332,-279,-23,54,-46,930,-530,-102,-10,-8,-30,928,-178,-327,-11,8,-44,135,89,-33,-7,7,-4,868,-160,-231,-5,-3,-10,55,156,96,0,-8,17,824,-184,-371,3,12,-4,709,-160,-199,16,-23,62,1831,-421,-772,12,-2,39,2967,-226,-1108,11,-55,67,53,243,215,1,-92,28,-3491,709,1545,22,-96,49,-979,-139,234,-5,5,-16,-151,0,-229,-2,-17,12,77,36,-64,-5,-17,-2,-408,-144,112,-6,-27,-17,-221,136,138,-1,-27,-2,-540,49,161,0,0,7,-297,28,48,-1,6,-5,-334,58,84,7,5,11,204,58,-57,5,-3,8,-2,-109,-1,-4,5,-10,157,-11,-79,0,5,-2,-131,11,91,2,-1,8,161,16,-136,-1,3,-11,-206,6,117,0,-2,3,92,-8,-56,t_right
8,159,-19,-4124,-34,1131,-13,49,-45,278,291,-148,-4,94,-32,-353,-48,260,-13,3,-65,16,420,121,-22,26,-41,1048,-286,-362,-25,-10,-64,1641,-190,-463,-6,-5,-21,1039,-114,-387,3,4,8,823,-85,-277,9,3,11,1051,-324,-319,10,11,42,2548,-297,-778,14,-12,40,1386,9,-300,22,-54,88,263,187,170,10,-74,51,-1321,517,493,23,-91,62,-2477,207,701,5,-38,8,129,-363,-411,-7,2,-14,-783,-102,133,-9,-14,-2,-179,19,2,-1,-16,-1,-62,1,59,-6,-21,-5,-142,-37,97,-4,-24,-6,-205,105,116,-2,-6,2,-290,52,104,-1,-6,1,-67,75,21,2,-3,1,-151,-2,-8,4,-5,3,71,-21,-54,-7,-7,-5,205,-7,-53,-1,3,-1,-84,14,40,1,11,-7,-173,-67,-60,-2,11,-1,-254,107,234,5,-18,16,37,-6,65,0,-9,-3,103,-45,-85,t_right
25,165,24,-3364,319,1031,-8,44,-45,-218,-186,-42,-16,62,-35,-20,123,-48,-2,56,-41,-615,96,357,-19,0,-65,784,87,-423,-20,49,-55,756,-263,-88,-15,-15,-41,1237,6,-275,-9,-1,-28,727,-148,-172,-2,-6,1,759,15,-241,2,-2,7,1109,-364,-383,12,15,39,2588,-479,-814,16,0,63,2199,-260,-384,17,-40,68,-206,92,62,1,-70,51,-1887,762,733,6,-82,58,-1389,318,299,11,-34,16,-536,-177,62,-9,-36,-16,-297,98,61,1,-20,11,-180,20,86,1,-32,-8,-296,-98,-83,0,-10,-9,-631,42,178,0,-10,9,-62,16,9,2,-9,-9,-597,-9,98,-3,7,10,318,60,-47,4,7,-2,-207,-35,17,4,-6,3,287,17,-55,-4,-2,-6,-187,-53,32,2,-2,0,93,69,2,5,0,4,-99,-49,-24,-4,1,-5,32,-4,1,1,-2,1,-42,-21,12,t_right
46,160,66,-3932,639,1333,-34,61,-108,-268,-497,312,-17,59,-65,-187,616,109,0,60,-17,11,-193,53,-34,-19,-54,1479,-246,-582,-23,-6,-59,1783,-336,-986,-9,22,-34,698,-32,-270,8,-7,38,1870,-352,-476,22,3,46,2822,-561,-1085,27,-2,57,2440,-97,-769,6,-58,52,-236,487,495,15,-131,54,-4148,969,1426,29,-84,66,-121,-301,-303,-16,-5,-39,-923,-245,140,-7,-3,-7,-352,59,150,0,-18,8,34,9,125,-3,-24,-10,-382,-7,130,-5,-7,-6,-311,60,152,3,-12,8,-380,64,74,2,4,0,-38,32,34,2,5,7,68,2,-24,1,1,2,28,-31,-24,-2,0,-8,76,12,19,1,0,-8,-370,32,124,6,5,25,458,-140,-246,-13,9,-28,-202,59,131,8,-9,13,29,121,58,6,-2,13,65,-220,-173,-12,14,-27,-91,123,135,12,-15,28,108,-35,-61,t_right
30,157,34,-3494,158,1008,-32,44,-110,-1266,40,308,-4,88,-28,-493,506,312,-21,32,-62,949,-284,-158,-33,7,-94,1702,9,-794,-11,21,-11,1640,-305,-273,2,-24,-21,990,-148,-417,2,18,19,911,-199,-166,14,-11,34,1478,-402,-494,13,19,43,2664,-437,-850,11,-28,63,192,42,310,3,-106,64,-832,401,67,6,-64,23,-1888,669,654,13,-54,48,-774,8,65,2,-11,-1,-276,-214,15,-17,-20,-15,-23,53,93,3,-35,4,-410,103,180,2,-26,-2,-284,-57,13,-7,-9,-13,-494,101,163,2,-7,3,-516,75,113,7,5,15,38,9,-77,-1,13,-3,42,-34,-9,0,2,-6,-52,31,99,6,-4,8,131,90,-1,6,-6,13,172,-314,-261,-16,15,-33,-150,100,119,10,-10,20,-12,45,42,-3,5,-7,37,-87,-131,0,-1,-2,-124,103,130,4,-1,11,-62,-59,11,t_right
32,156,12,-4030,780,1260,-12,52,-51,-312,-163,93,-6,82,-44,336,127,-163,-17,-2,-40,1849,-793,-450,-20,11,-74,1004,149,-555,-5,36,0,1188,-121,-136,7,-26,13,1788,-250,-560,19,-10,50,2295,-495,-780,6,-25,42,1426,27,-490,0,-73,32,-1073,577,545,6,-85,33,-2593,428,864,28,-43,52,315,-270,-376,-24,-12,-46,-1154,-230,452,1,-18,-1,-377,231,132,4,-2,17,-434,23,232,-2,-18,0,36,-3,-152,-3,11,-1,-214,-33,48,4,-5,1,162,29,-27,-2,6,2,-103,-25,5,-1,6,-11,-175,64,90,8,-3,15,282,-30,-114,-6,5,-12,-112,-123,-9,2,1,-2,113,206,65,1,-7,10,-22,-162,-55,-2,1,-11,-34,114,14,2,-4,17,91,-105,-53,-6,4,-17,-132,53,57,4,-2,12,95,33,-50,-3,1,-7,-74,-44,66,4,0,1,46,58,0,t_right
-8,158,-45,-4731,114,1390,-13,75,-51,155,234,-165,-22,43,-71,894,73,-258,-13,18,-62,813,-9,-201,-17,-7,-17,2134,-377,-588,2,1,-18,985,-210,-270,4,7,16,1010,-224,-174,16,-10,48,2639,-519,-858,13,2,52,1368,-120,-426,8,-57,52,-742,443,232,14,-58,43,-2439,570,1042,8,-80,58,159,-76,-346,-2,-3,-1,-764,-123,268,-5,-36,10,666,-34,-324,-1,-27,-11,-908,-21,341,-4,-17,-3,-303,104,137,-1,-34,1,-328,135,86,-1,-6,-2,-448,-18,68,-4,-4,1,-288,49,45,5,7,3,-82,37,38,3,9,5,163,-72,-57,-6,-2,-7,-148,10,32,4,0,4,72,23,9,2,-5,1,-95,-32,1,-2,20,-2,73,22,0,3,-9,-4,-37,-9,11,0,7,6,63,-23,-20,-2,-4,-4,34,39,1,3,-1,9,95,-28,-84,-2,4,-5,-98,-39,68,t_right
7,153,-41,-3899,351,1137,-5,54,-44,-188,369,-80,1,94,-34,-280,-23,301,-21,-39,-47,2277,-606,-715,-22,33,-71,1168,-30,-556,4,9,9,1017,-35,-2,2,-12,8,580,-122,-215,7,8,20,582,-181,-72,3,-10,30,2652,-426,-720,4,-18,38,457,-14,39,12,-78,59,383,349,-216,-2,-42,42,-1419,309,435,16,-90,40,-1020,126,182,-4,-23,-4,-470,-173,-31,-1,-19,-10,-365,13,79,-6,-15,2,-471,24,161,-7,-35,-5,-339,42,180,-2,-12,-5,-449,72,51,4,3,10,-149,48,27,1,7,0,44,-95,-5,-2,3,-8,-365,70,136,6,-2,15,340,16,-134,-2,8,-8,-214,-51,46,3,1,-1,90,96,27,0,-2,11,62,-73,-72,-2,2,-10,51,25,-11,3,2,8,-33,-13,37,-2,1,-10,18,-48,-12,1,-2,9,-28,74,23,1,1,-1,20,-67,-50,t_right
7,161,-39,-3561,34,896,-10,44,-45,-427,465,17,5,78,-19,375,-71,-48,-15,25,-75,416,282,76,-7,9,-21,1493,-187,-510,-11,3,-13,1128,-376,-114,8,-19,6,1171,-460,-479,0,26,5,750,-320,-151,13,-25,47,2957,-688,-979,7,-1,43,1555,53,-306,-13,-76,34,-1467,681,888,14,-127,59,-2046,792,355,24,-35,62,681,-317,-349,-27,-7,-64,-628,-438,200,-27,-76,-33,-1103,557,382,24,-32,43,-789,119,261,-3,3,-4,-367,-180,-174,-8,18,-18,-575,158,214,17,-11,39,448,10,-122,-8,13,-18,-266,-165,6,1,-6,2,477,265,-70,9,7,6,-578,-171,145,-4,7,-1,379,-5,-143,0,1,-5,-161,-14,106,2,-1,3,133,26,-83,-2,3,-6,-35,-8,34,4,-3,4,-40,16,5,0,-1,11,245,-8,-81,-1,7,-4,-183,-124,13,-7,4,-18,22,132,60,t_right
49,125,78,-3535,353,689,-35,64,-114,-1124,-400,353,-1,80,-49,329,507,-144,2,50,-18,401,-206,48,-30,-2,-99,932,-4,-169,-15,14,-32,1175,220,-379,-8,9,-4,1287,-336,-75,1,-18,-14,659,-47,-176,6,8,40,2321,-698,-678,11,10,35,2259,-565,-532,8,-35,56,966,-25,-231,-1,-71,55,-622,630,80,8,-67,59,-2311,682,817,15,-78,51,57,-243,-125,-7,-35,-29,-657,4,147,-1,-20,-6,-610,52,124,-1,-40,5,-366,-6,6,-5,-8,-13,-801,-14,214,0,-12,2,-244,136,30,3,2,7,-376,-10,77,4,10,4,154,15,-45,3,3,-2,-101,-7,-4,-7,7,-5,16,-51,37,7,-2,3,144,49,-73,3,2,9,45,-148,-14,-6,-2,-10,112,99,-52,2,-2,3,-245,7,81,-1,10,-8,-199,20,98,11,-10,33,753,-26,-274,-11,9,-28,-320,-253,35,t_right
56,148,67,-4168,1034,1252,-34,58,-105,-537,-591,188,-18,66,-84,665,667,-212,7,55,20,1141,-392,-61,-29,-39,-76,1012,-244,-396,-2,47,-18,925,-131,-442,-4,-10,-14,621,-117,15,-1,-9,12,975,-298,-459,8,14,13,728,-336,-154,9,-35,43,2603,-426,-976,13,-3,50,1813,51,-576,-4,-70,43,-1592,594,702,14,-104,51,-1601,543,666,9,-47,11,-296,3,110,-7,-34,-15,-846,-185,49,-2,-20,1,-708,-29,228,-2,-12,0,-150,18,41,-3,-12,-7,-451,-30,150,0,-10,2,-238,163,58,6,6,9,-118,-12,-19,0,6,-3,27,-17,6,3,6,1,-56,34,39,2,-2,10,153,-174,-131,-9,7,-21,-78,76,38,8,-6,14,47,28,18,-6,9,-8,-73,-54,-21,1,-5,4,229,142,2,3,-4,10,-226,-191,-4,-9,8,-20,171,102,-10,10,-5,15,-118,15,79,t_right
33,153,44,-4409,161,1348,-27,52,-102,-1462,-167,304,-31,75,-68,740,333,-418,-18,34,-66,1263,130,-382,-16,16,-70,2012,-284,-514,-9,-2,-33,1505,30,-248,9,-8,26,728,-94,-169,3,5,23,1030,-555,-180,2,-7,10,1634,-295,-530,13,12,53,1088,-65,-264,12,-40,68,272,-30,82,4,-63,42,57,305,-251,0,-45,37,-1431,596,490,18,-69,49,-810,-76,202,-2,-30,3,40,-160,-24,-2,-38,-12,-260,-63,-47,-4,-25,-1,-474,-43,113,-7,-27,-11,-607,65,168,-9,-21,-11,-513,83,172,-5,0,-5,-816,149,243,14,7,29,361,125,-144,-3,13,-5,-281,-121,67,2,4,0,308,51,-49,7,-5,3,-45,-40,-6,-3,9,-5,108,0,-50,1,-4,3,-34,-11,40,1,7,2,32,-49,-17,-3,-4,-7,-66,46,34,4,-3,9,70,-21,-57,-1,5,-6,59,-18,11,t_right
15,159,2,-3725,109,1172,-7,31,-44,-291,137,188,-8,69,-32,-245,23,0,-17,45,-61,404,13,-37,-18,5,-51,999,201,-492,-14,17,-40,1180,-294,-293,-10,-9,-16,1173,-122,-396,0,5,-4,1091,-245,-331,8,9,12,502,-112,-71,16,-22,65,3206,-665,-1074,13,11,39,1929,-111,-561,16,-73,64,-514,423,295,-11,-100,26,-2840,916,1109,32,-80,74,-921,-211,86,-13,-14,-38,-912,-211,71,-2,-16,3,-208,214,90,3,-9,7,-527,-126,158,-5,-11,-8,-41,58,26,5,-11,5,-445,123,135,2,6,10,391,-121,-150,-1,3,-20,-484,37,135,3,-8,12,359,171,-51,8,10,11,-273,-313,-20,-13,2,-26,254,138,-31,3,0,17,-220,7,98,2,-1,-4,197,-87,-77,-3,1,-10,-129,84,79,7,-1,15,-47,-35,-42,-4,11,-9,94,-48,-39,-1,-8,-1,92,94,18,t_right
17,162,-6,-4999,221,1314,-17,57,-62,-1024,373,390,-12,63,-76,1383,69,-571,-18,34,-58,1343,-254,-198,-20,-23,-60,1593,-243,-592,-7,25,-14,1246,-132,-182,2,-22,7,753,-172,-116,8,11,17,1467,-420,-417,12,2,47,1562,-437,-389,8,-7,31,1542,21,-419,4,-49,55,-614,396,130,13,-68,74,-1129,480,340,12,-44,42,-554,45,189,1,-57,10,-903,36,182,0,-20,18,487,-216,-280,-9,-27,-18,-61,-80,38,-9,-33,-17,-931,101,252,5,-32,2,-618,108,234,-4,-15,-7,-846,-6,214,4,9,16,2,155,-86,4,10,6,-13,-49,14,0,6,-4,213,0,-24,2,-4,-2,59,10,-19,1,-1,3,-3,-70,-28,-2,-1,-7,6,74,1,3,-1,7,-91,-111,27,0,2,-8,-42,84,30,-2,0,12,38,-54,-14,-1,0,-9,154,-2,-50,1,-2,-2,-158,35,51,t_right
52,136,57,-4364,905,1290,-37,65,-67,-332,-916,290,-14,55,-90,583,440,-393,-1,55,-8,257,-89,-113,-26,5,-86,1443,-282,-470,-14,9,-44,1344,89,-465,2,9,13,1474,-217,-209,14,-6,33,1555,-446,-469,8,15,37,2598,-577,-588,3,-47,36,1212,48,-171,-7,-75,40,-803,748,273,23,-91,78,-2331,585,649,19,-49,32,-897,-378,95,-20,-17,-36,-707,-13,56,0,-17,12,-285,143,49,2,-4,3,-309,-114,87,-4,-12,-12,-298,101,105,6,-5,15,-63,43,-33,0,9,-2,-59,-133,1,-2,-4,-1,195,154,-59,3,0,3,-199,-110,38,-2,-2,-4,180,77,-29,1,7,-4,-266,-74,116,1,-7,4,113,30,-67,1,8,-4,-52,-50,20,-3,-2,-3,-8,107,17,3,0,10,62,-120,-40,0,-1,-14,-17,33,7,-1,0,10,37,15,0,4,-5,7,96,-49,-68,t_right
4,149,-47,-5181,176,1356,-6,75,-28,1018,93,-517,-19,50,-79,-62,41,254,-14,9,-60,1666,-98,-532,-15,21,-45,1260,30,-189,5,-8,5,1182,-236,-243,1,4,7,1463,-345,-334,11,28,56,2530,-512,-299,7,-41,47,2485,-296,-461,-21,-57,26,-759,709,127,14,-124,68,-3326,923,820,28,-59,77,-47,-211,-349,-2,-20,-23,-632,-325,-20,-14,-5,-20,-458,92,137,3,-30,11,-381,37,166,1,-14,-11,-463,-25,95,1,-14,-2,-401,56,79,3,2,9,-147,43,-29,1,13,5,122,-88,15,0,-2,-10,-47,35,-27,3,-1,8,-28,-31,43,-1,-4,-2,253,4,-94,0,6,-3,-192,-25,31,2,-3,6,246,22,-70,-1,-4,-6,-133,15,84,-1,-5,4,84,-20,-63,0,3,-6,-182,-55,76,-1,-3,-2,55,76,8,3,-1,9,45,-18,-38,-4,3,-8,-93,-43,50,t_right
41,146,61,-4613,675,1247,-29,58,-92,-261,-744,-8,-18,59,-86,363,670,-484,4,80,-15,683,-7,-6,-21,-19,-78,1167,-185,-119,-7,12,-40,1004,5,-318,-6,2,-6,1250,-223,-25,3,-14,-8,569,-183,-282,-9,11,5,936,-237,-122,19,-21,58,2384,-543,-800,14,20,45,1852,-324,-616,9,-72,42,-410,474,-49,7,-31,59,-1715,777,756,22,-105,64,-510,-34,53,3,-20,5,-738,-153,155,1,-31,-4,36,-176,-135,-13,-35,-5,-460,-74,187,-8,-22,-8,-380,-35,165,-7,-30,-10,-336,131,160,-1,-13,-1,-439,90,126,-3,-7,5,-76,65,29,-1,-2,-4,-390,41,123,4,9,9,99,11,-18,1,-7,-4,-18,-10,3,0,0,3,2,-19,-41,-3,5,-6,-49,74,43,4,-2,10,-150,-26,61,1,5,1,131,-41,-79,-2,-2,-3,18,6,-9,0,6,0,-34,12,31,t_right
45,140,49,-3757,653,1244,-24,74,-73,-1309,-436,326,-8,66,-45,-143,442,-1,-11,42,-40,1046,-467,-337,-31,4,-110,1008,4,-448,-18,36,-45,992,181,-189,-9,-25,-24,795,-151,-273,-6,7,-21,1197,-213,-252,-2,0,-10,223,122,188,2,-26,22,1193,-150,-518,4,32,39,2298,-573,-576,23,22,57,927,-316,0,1,-40,26,-203,428,2,17,-48,92,-391,226,-35,4,-55,39,4,128,-190,12,-44,47,-921,162,271,20,-60,46,769,-48,-278,-13,-28,-32,-1148,-400,270,-9,-55,-24,210,103,96,-18,-60,-23,-1385,-18,354,-1,-15,-1,-733,255,229,-2,-26,5,-598,51,81,2,18,8,-150,83,33,3,1,7,-13,28,6,2,3,3,-10,-75,26,-1,-1,-3,132,20,-62,4,4,2,-150,-23,46,1,7,0,177,34,-75,-1,0,-1,-201,-62,92,0,2,-5,144,14,-23,t_right
59,292,97,-5988,414,1838,-37,-40,-152,409,-84,-137,-25,118,-74,1037,236,-471,-16,26,-60,1650,-396,-160,-25,-49,-49,1079,92,-433,-8,16,-18,1347,-272,-598,-3,10,-27,622,15,-41,4,-7,23,847,-121,-252,5,11,34,2388,-421,-496,21,3,68,2394,-445,-595,9,-38,47,728,378,-142,14,-97,83,-1602,722,362,27,-75,61,-2364,188,655,2,-56,11,142,-348,-378,-11,-20,-23,-1274,-86,277,-4,-19,-8,-277,69,160,-3,-23,-7,-840,38,319,4,-5,17,-108,26,65,0,-4,-5,-156,54,-18,-1,11,4,-235,9,105,7,-7,13,452,45,-124,-2,9,-7,-247,-177,53,-2,1,-18,60,98,-53,3,6,9,-153,62,141,4,-7,15,242,-116,-149,-8,7,-20,-138,8,89,4,1,12,-2,55,-37,2,-6,1,166,-29,-51,-3,7,-6,-189,-9,60,4,-5,6,168,-2,-22,t_right
27,161,27,-4762,325,1398,-25,26,-82,-555,-120,-97,-13,99,-88,102,443,-215,-21,28,-42,1140,-140,-119,-20,-11,-88,2021,-306,-483,-2,11,-23,1216,-17,-350,-2,0,5,1088,-210,-74,4,2,9,777,-80,-143,5,-8,38,2217,-482,-544,18,11,61,1971,-308,-601,9,-50,61,252,118,-101,15,-77,62,-1069,647,60,3,-54,55,-1588,201,521,13,-68,26,-514,-234,117,-15,-31,-39,-999,-59,146,-1,-15,8,-307,157,180,-2,-24,4,-357,-81,93,-2,-11,-12,-516,85,187,-1,-2,10,-127,51,3,4,-1,1,-3,44,-6,-1,7,-2,-174,-18,95,1,-7,4,206,124,-40,5,-3,12,-202,-165,7,-7,15,-16,231,-43,-107,2,-2,-4,-275,100,141,3,-6,16,115,-40,-85,-4,7,-14,-4,0,6,5,3,11,66,56,-4,-3,-1,-8,-45,-73,-5,-1,2,-1,-62,37,52,t_right
7,157,-32,-3272,48,812,-4,64,-31,-385,384,143,-1,36,-42,-792,164,236,-12,44,-52,942,-150,-450,-24,14,-63,1374,-105,-228,-10,2,-23,1344,-253,-240,3,0,-18,595,4,-79,-3,-17,14,1318,-377,-462,6,28,24,1554,-286,-305,16,-22,62,2134,-342,-606,11,-36,48,979,76,-443,-1,-56,48,-1424,667,497,20,-89,70,-1654,247,631,5,-42,12,-625,-242,-9,-8,-34,-18,-812,-8,105,2,-8,0,-326,113,146,-5,-13,0,-494,-1,171,0,-5,7,133,-79,-64,-6,-16,-16,-616,170,204,13,-10,26,285,117,-117,-3,16,-10,-334,-107,51,4,9,6,279,-42,-59,-6,-6,-6,-161,-59,73,4,-7,3,73,83,-66,-2,8,-2,-51,-91,6,-1,-2,-4,134,71,11,2,1,8,-93,-92,-9,-6,-4,-15,-8,85,6,7,3,15,-62,-3,2,-4,-1,-4,56,-65,-16,t_right
25,155,22,-5081,323,1406,-19,25,-85,-170,9,-306,-24,114,-95,265,281,-175,-5,6,-31,2156,-276,-318,-9,-7,-78,1233,-113,-315,-12,14,-13,1230,62,-150,7,-11,22,1161,-247,-188,2,6,30,1522,-541,-333,13,5,36,2262,-478,-460,3,-34,63,1211,46,-263,3,-62,39,-897,492,64,10,-95,83,-2092,680,601,14,-60,41,-543,-413,-45,-16,-16,-53,-1082,-148,148,-12,-15,7,-266,322,157,5,-24,14,-475,13,125,2,-2,-6,-271,11,62,2,-8,1,-190,107,34,-3,3,8,106,-95,-52,-1,1,-10,-122,47,25,6,-3,13,-2,54,35,-3,9,-11,-174,-96,9,3,5,4,298,87,-46,-1,-7,3,-39,-96,-40,-2,6,-10,-36,77,73,7,-13,12,-65,-60,-4,-3,9,-6,49,-11,-36,-1,-2,1,68,82,13,2,-1,6,-47,-106,-35,-4,4,-15,15,73,54,t_right
40,140,55,-4428,944,1042,-26,52,-86,-697,-771,318,-8,56,-84,1072,376,-523,-9,49,-15,1207,-275,-142,-16,-12,-67,1272,-164,-292,-4,15,-8,1590,-118,-415,13,-28,47,3773,-789,-1059,16,23,56,2587,-561,-574,-4,-74,33,-659,702,567,5,-128,52,-3173,951,855,24,-65,67,40,-435,-424,-23,-7,-55,-1352,-281,302,-13,-16,-2,-238,279,128,10,-38,16,-344,55,74,-8,-3,-14,-442,-17,97,-2,-2,2,-277,82,40,5,0,12,-58,38,-23,-2,12,-3,59,-48,16,5,-7,2,233,39,-33,-2,-1,-3,-286,-62,1,-2,5,-5,115,88,5,2,-5,10,-69,-50,-2,-2,7,-7,69,-23,-20,1,-6,3,-33,55,40,1,3,4,39,-70,-49,-2,0,-5,23,64,-1,3,-2,0,-71,-43,31,-1,3,1,155,43,-20,0,-4,-3,-78,7,73,0,-6,1,44,-48,-67,t_right
2,279,-141,-4522,403,919,-11,54,-12,446,299,45,-7,10,-50,2214,-651,-482,-16,-9,-50,722,132,-192,-3,6,-2,1086,-107,-125,-1,-6,12,1322,-327,-293,8,5,36,1427,-254,-259,13,-12,57,1837,-382,-435,1,-35,33,303,178,-151,6,-74,64,-822,518,149,7,-62,57,-830,284,209,14,-68,24,-477,-196,61,-13,-34,-28,-868,-175,52,-8,-29,-8,-325,134,226,-5,-36,-5,-783,44,147,-1,-13,-5,-619,99,171,2,-1,13,-318,15,15,4,13,2,-135,-12,42,1,0,0,129,69,4,4,1,6,-2,-43,-50,-4,4,-8,36,-14,29,1,0,9,3,8,-29,2,2,-1,183,3,-70,-3,1,-5,-97,30,68,6,-7,9,118,-33,-48,-4,8,-12,-92,-60,-7,-3,6,-1,-114,55,89,5,-4,6,20,-18,-44,-1,2,-2,120,-18,-27,-4,-4,-4,-61,60,35,t_right
7,290,-118,-5074,545,918,-5,56,-38,615,-65,41,-27,-1,-85,2049,-393,-367,-17,-2,-66,1623,197,-283,6,-5,27,1115,-48,-139,3,-9,34,1434,-507,-446,8,16,22,1484,-300,-323,13,-13,64,1784,-306,-421,7,-42,56,908,95,-343,-2,-53,53,-1566,675,425,28,-108,79,-1510,211,465,-2,-40,-11,-174,-322,-132,-9,-45,-19,-471,7,85,-10,-25,-9,-1184,34,327,1,-30,5,-328,112,44,0,-6,-9,-656,80,141,4,3,19,36,-41,-32,-3,-1,-7,-184,25,72,6,-2,7,84,28,-37,-2,5,-1,69,-132,-47,-6,0,-13,-7,57,34,7,-7,15,-140,-27,27,-5,10,-10,36,32,17,7,-9,15,191,40,-70,-4,5,-16,-167,-1,24,2,1,7,-33,-6,41,1,5,0,45,-106,-79,-4,0,-9,-63,139,75,4,-5,15,-6,-105,-35,-3,7,-10,97,43,18,t_right
48,149,58,-3457,566,712,-33,108,-76,-804,-993,420,-17,-8,-57,173,626,-22,-4,71,-38,118,62,-213,-15,13,-57,1351,-25,-375,-19,8,-47,1396,25,-338,0,14,-13,1103,-128,-96,5,-12,23,1710,-247,-341,4,-5,37,2198,-303,-518,17,-22,71,1381,-359,-242,6,-64,37,446,287,-241,0,-65,51,-1990,660,459,26,-91,69,-637,-202,183,-16,-26,-38,-460,-327,-75,-13,-47,-23,-454,193,216,-7,-43,-15,-1429,85,383,2,-17,-2,-818,192,143,9,8,24,-53,28,-106,1,21,1,-175,-60,69,0,5,3,279,30,15,5,-9,2,-50,-52,-29,-1,11,-3,37,-52,28,4,-3,3,133,33,-36,-1,5,-5,-121,-9,23,0,0,2,118,-1,-60,0,1,-1,-94,5,57,2,1,0,65,32,15,1,-2,4,55,-77,-74,-1,3,-6,-55,52,38,2,-4,9,90,-15,-50,t_right
41,152,35,-3919,545,801,-28,79,-57,-187,-741,218,-13,55,-93,-808,694,295,-7,42,-7,674,24,-46,-3,-1,-77,1110,-259,-502,-38,31,-69,1892,-70,-344,-9,-14,-1,1147,55,-133,10,0,38,1617,-485,-527,6,12,20,1096,-290,-116,10,-37,44,1873,-296,-713,12,-27,53,929,204,-470,4,-44,57,-1705,507,490,18,-88,59,-2057,204,768,3,-30,4,204,-147,-200,0,-35,4,-406,-141,25,-9,7,-13,-336,-63,129,-3,-55,-3,43,166,110,-1,-11,-2,-819,-6,181,1,-10,-4,-259,203,75,6,-3,13,-332,-34,74,-1,6,-2,-77,-48,28,-1,12,-11,-115,78,49,7,-7,23,417,-82,-164,-2,12,-9,-59,-143,1,-7,-4,-14,-7,128,52,11,-14,27,181,-28,-100,-7,19,-20,-269,-103,74,2,-8,6,260,186,-41,1,-5,-1,-276,-121,23,-4,12,-6,77,95,26,t_right
38,145,44,-2610,218,689,-29,32,-99,-1298,-231,439,-1,48,-28,106,436,-91,-11,54,-33,220,-72,108,-27,-13,-53,1097,15,-297,-8,44,-55,1017,-72,-307,-8,-8,-9,835,-144,-80,-4,-19,-7,793,-190,-349,-6,19,-4,725,-126,-233,15,-25,60,2622,-357,-869,12,21,44,1985,-356,-528,12,-67,47,-73,388,170,7,-55,47,-2116,768,841,32,-95,66,-1252,-44,131,-7,-20,-1,-153,-389,-334,-1,-25,-6,-419,-78,-81,-9,-14,-5,-181,-55,54,-4,-30,-9,-307,56,33,-9,-18,-6,-383,61,316,-2,-13,-1,-262,158,129,2,-1,6,-190,-1,201,2,1,-1,-141,10,98,2,-11,5,56,42,-44,0,9,-5,-129,-66,-20,1,2,-1,154,84,0,5,-6,10,-183,-133,23,-2,8,-6,202,44,-30,0,-5,-3,-96,22,28,1,2,5,40,-40,-18,0,0,-1,59,-13,-27,t_right
28,158,10,-2956,360,765,-12,52,-26,-1190,-363,463,-12,38,-62,-706,621,210,-4,79,-30,-454,61,259,-22,-2,-70,1811,-331,-516,-33,6,-90,1815,-144,-700,-10,12,-17,1491,5,-302,3,-13,37,906,-260,-157,14,5,35,2639,-733,-833,7,16,21,740,121,-58,17,-66,73,720,48,-402,4,-31,51,-114,390,-205,12,-62,54,-2154,370,904,18,-88,35,-498,-101,85,-1,-1,-22,-1307,-158,222,-6,-15,3,144,12,-30,-7,-19,1,-332,66,165,2,-9,3,-96,25,45,3,-23,0,-200,34,4,-7,10,-2,-139,-65,76,11,-17,1,89,143,-61,-2,6,-4,-528,-110,158,-1,-6,4,392,109,-111,2,5,1,-208,-91,68,6,3,0,343,16,-88,-1,-11,-6,-179,-51,56,0,2,3,-17,-5,-45,-7,-4,2,53,19,-5,0,5,-1,-136,2,34,4,-4,-2,17,45,29,t_right
35,158,55,-3776,542,1149,-33,27,-102,-664,-496,282,-4,75,-42,-497,286,-23,-12,45,-54,1646,-453,-455,-25,-12,-68,1395,-9,-465,-20,27,-47,870,112,-292,0,0,5,714,135,-34,3,-6,8,385,-138,-9,-4,-2,-14,733,23,-236,11,1,60,1748,-209,-457,3,0,32,2392,-545,-597,15,-69,66,817,222,-265,6,-53,46,-1047,479,89,24,-77,67,-2473,287,849,3,-52,-3,-90,-190,-214,-6,-28,-10,-1051,-86,257,2,-12,5,-90,-14,25,-2,-19,-6,-248,14,70,-2,-11,1,-385,-60,205,0,-14,-6,-165,37,67,0,-2,-2,-405,95,136,4,7,13,27,-46,-53,-1,4,-5,163,-30,-71,0,3,-8,-169,29,110,-1,-1,10,-26,23,-28,3,4,5,348,-14,-69,-2,-4,-5,-155,5,6,1,4,-5,17,-3,30,0,-7,6,-72,5,-26,0,5,-1,14,-30,18,t_right
29,154,18,-3366,174,937,-23,63,-87,-737,79,171,-3,53,-21,71,315,44,-9,25,-53,678,-267,-167,-21,1,-49,1206,-237,-572,-14,42,-56,1055,-47,-87,4,-22,-1,907,11,-248,-5,12,2,975,-178,-145,8,-4,18,632,15,-25,3,1,50,2193,-425,-550,4,-12,30,600,-126,4,4,-88,57,-200,347,-129,7,-31,47,-651,397,-123,14,-50,45,-1137,-47,232,6,-43,15,-69,-106,-105,-6,-20,-13,-655,-96,203,-8,-35,-3,73,159,40,2,-26,1,-494,2,211,-5,-25,-8,-348,-3,164,2,-8,5,-383,16,69,1,-4,-10,-396,118,90,5,0,16,10,23,16,1,9,3,-13,-117,-9,-3,-1,-11,58,22,-7,6,-3,3,-118,-4,-2,-1,8,4,54,-67,-1,-6,1,-13,-107,69,56,8,1,14,218,-6,-72,-3,-2,-6,-4,-125,-25,-3,1,-6,38,160,35,t_right
29,159,32,-3842,279,843,-15,26,-56,-330,-194,120,-10,88,-69,-888,321,213,-8,29,-33,515,14,-2,-15,33,-104,1073,-144,-261,-27,-14,-34,1826,-39,-375,-11,1,-21,1169,-176,-312,2,0,11,1045,-214,-234,0,1,9,1440,-136,-336,12,15,57,2151,-321,-509,13,-24,56,697,-99,-36,10,-68,62,-53,321,-260,11,-36,55,-1417,342,246,16,-76,64,-533,-87,225,-4,-44,-13,-903,-139,180,-11,-24,-7,-193,-60,-8,-7,-36,-12,-736,221,269,3,-24,10,-557,87,148,1,-7,1,-421,-67,76,-1,4,0,-90,125,-5,6,4,13,-12,-49,-18,-5,0,-9,24,-43,38,3,-8,-1,-114,108,0,3,11,0,-50,-52,12,-1,10,-1,75,-16,16,-1,-7,1,105,-69,-47,3,-1,-3,-96,8,24,0,-5,5,15,4,15,-1,4,-1,64,35,-54,-2,0,-2,-12,-19,32,t_right
37,159,30,-4369,744,1031,-23,58,-85,-1142,-493,478,-7,55,-64,243,366,-161,-23,41,-65,1495,-299,-407,-26,7,-70,2127,-201,-508,-3,-4,-30,1077,60,-188,3,-10,24,1070,-173,-300,0,13,7,1354,-288,-276,11,-2,38,1498,-195,-310,14,-19,66,1451,-254,-380,4,-37,31,-326,338,33,13,-80,78,-1302,428,47,10,-30,44,-1060,-64,432,6,-44,5,245,-125,-270,-4,-32,3,-313,-108,171,-13,-36,-27,-685,153,226,2,-33,13,-512,95,182,0,-18,-7,-505,-15,81,-2,5,1,-564,128,205,5,-1,18,267,-16,-128,1,7,-12,-125,-36,66,0,-3,7,86,6,-15,2,-3,-1,9,-55,-53,-1,0,0,90,39,22,1,5,-6,-185,-18,16,4,-8,12,227,40,-57,-5,7,-15,-221,-101,37,-2,3,-4,-16,151,34,5,0,17,62,-172,-63,-8,1,-20,22,98,65,t_right
-35,315,-238,-1213,180,293,-3,2,-18,563,-5,-68,1,-11,16,1192,-300,-269,-8,21,-20,818,-36,-63,15,-26,61,1537,-201,-429,9,7,54,1647,-370,-350,3,-42,37,20,180,0,11,-77,61,-699,457,-128,10,-29,62,-1057,69,318,8,-70,22,-369,-229,20,-12,-29,-27,-687,-54,146,-5,-33,-2,-439,189,158,-2,-28,1,-725,-5,250,-1,-7,-6,-493,95,101,3,-2,10,-117,153,-15,5,13,8,-105,-146,13,-5,-1,-16,5,41,38,7,-7,19,205,-28,-100,-3,1,-14,-118,24,63,4,7,3,-115,7,22,0,5,2,107,-74,-17,-8,-1,-6,23,23,14,11,-15,18,201,71,-63,-4,12,-16,-187,-173,8,-4,0,-8,-3,176,121,7,-4,18,-129,-105,-26,-5,4,-15,-64,19,-2,5,4,11,145,11,-64,-4,-2,-5,43,-31,-27,5,2,3,-40,23,50,t_right
22,167,21,-3972,383,1044,-23,37,-79,-277,-297,153,-6,44,-64,-250,469,-154,-8,56,-39,747,-115,-228,-24,-2,-63,1683,-313,-284,-9,5,-56,925,11,-315,-6,0,0,1049,-14,-120,7,-7,20,881,-230,-257,6,7,8,1435,-246,-280,10,8,61,2021,-383,-431,13,-29,54,972,-89,-111,8,-79,43,127,413,-297,-2,-35,64,-2279,525,679,19,-94,55,-188,-150,-75,-11,-25,-31,-1277,-133,327,1,-32,-4,-167,148,-74,0,-24,9,-743,5,292,-2,-3,0,-88,-21,-8,-1,-17,-7,-361,52,53,1,7,4,-286,-5,137,-1,-2,2,120,69,-72,4,3,0,-84,-106,1,-5,-2,-7,44,67,19,6,-2,9,-15,-18,-7,-4,5,-4,58,-34,-18,3,-3,-2,-55,94,34,5,-2,10,40,-125,-37,-6,3,-12,36,97,3,4,-2,7,-130,-6,29,-2,3,0,91,-81,-17,t_right
42,159,49,-4038,602,1011,-30,52,-79,-968,-639,351,-16,54,-91,210,498,-235,-11,39,-20,1115,-160,-228,-29,4,-80,1571,-163,-251,-9,15,-58,994,67,-336,-2,-1,10,1026,20,-123,6,-14,22,1243,-286,-309,6,12,30,2320,-453,-640,10,-1,50,1114,-110,-50,13,-74,56,1073,78,-685,2,-17,68,-1072,514,490,18,-106,54,-1902,88,434,0,-57,-3,14,-195,-82,-9,-50,-21,-1249,85,254,-5,-16,4,-521,205,122,4,-17,11,-360,-45,67,-3,8,-16,-557,8,216,7,-6,11,-98,83,80,4,-2,1,-128,-129,-9,0,13,-3,98,15,-25,3,-6,3,-77,40,21,2,9,0,5,-80,-16,-1,-5,-12,55,78,-17,-1,9,13,-27,-82,2,1,-1,-3,178,-21,-51,1,-5,1,-82,12,27,-4,8,-4,-65,55,21,5,-4,13,167,-114,-75,-3,0,-18,-35,81,66,t_right
9,169,-8,-3730,37,721,-5,43,-58,-1237,207,112,-12,73,-44,800,-9,-281,-15,34,-80,218,74,144,-6,7,-53,1827,-146,-479,-15,10,-33,1385,20,159,6,-33,5,958,-80,-292,-1,26,17,679,-179,-200,0,-4,14,1322,-178,-150,6,-8,47,1121,-112,-288,7,-18,51,663,-51,-112,9,-49,54,150,83,-138,7,-48,64,11,189,-164,10,-43,32,-129,38,145,0,-76,12,-627,-17,202,-3,-93,-9,-791,-249,43,-18,-33,-40,-1453,174,360,1,-13,12,-832,203,106,5,2,14,-434,37,102,-1,8,5,-92,-26,68,1,-7,-2,14,63,-43,6,11,3,-116,-45,27,-1,1,-1,169,-30,-33,-2,5,-3,-45,11,-19,4,0,7,-19,27,39,1,2,-2,99,-51,-51,1,2,-4,-50,8,-2,2,4,9,98,9,-15,-3,-2,-6,27,1,23,4,-1,5,-57,4,23,t_right
33,166,20,-3595,411,809,-17,67,-40,-743,-488,417,-17,31,-72,2,298,-107,-13,76,-51,-560,179,123,-13,-1,-43,1638,-325,-541,-27,34,-93,1658,-114,-253,-4,-34,-5,1209,59,-252,-2,19,-7,555,41,-166,8,-9,30,1155,-154,-215,-1,15,19,2346,-237,-664,13,5,66,604,-8,333,26,-114,66,1597,31,-999,-9,15,41,-976,606,99,32,-109,77,-1976,188,646,10,-48,-5,-126,-210,-92,2,-60,-1,-771,-91,282,2,-24,-7,-857,-210,199,-2,-19,-14,-598,0,187,0,-6,7,-357,11,91,2,-1,0,-110,13,40,0,7,5,-137,-57,43,-3,-2,-7,88,-14,-24,2,0,5,-34,-23,-42,-7,5,-1,-14,17,9,6,-9,7,147,68,6,-4,8,-5,-115,-89,39,2,-6,0,66,118,-19,2,4,4,-61,-88,-10,-5,-1,-6,23,73,30,5,-1,8,43,32,-42,t_right
-23,276,-129,-5083,298,1655,-2,67,-34,371,254,-91,-35,16,-66,2381,-335,-409,-12,-44,-26,1077,-143,-609,-15,33,-30,911,-84,-280,7,-17,20,1242,-166,-385,12,11,33,2790,-535,-994,11,9,47,1944,-22,-308,16,-76,55,-76,362,-235,22,-44,87,-2516,807,856,35,-95,70,-234,-537,-165,-15,-16,-38,-1210,59,458,10,-36,26,78,20,-162,-10,-22,-18,-928,-160,350,-7,-4,-5,-53,-1,55,3,-32,3,-415,37,190,-1,4,1,-300,77,88,-1,-4,5,-32,93,-7,5,4,4,-63,-95,20,-3,3,-10,94,44,-28,4,-3,13,31,-29,36,-3,-1,-11,1,-28,-31,0,0,5,44,35,2,1,-2,1,-12,-54,-22,-3,6,-9,-43,55,49,2,-6,9,24,-77,-25,-6,1,-13,-86,39,18,8,-2,17,101,24,-3,-4,-3,-11,73,16,-64,1,0,3,-169,3,85,t_right
33,152,26,-3699,725,1097,-29,80,-52,-1573,-643,917,-21,19,-88,222,416,-182,-14,73,-49,977,-360,-342,-36,-18,-72,2043,-196,-777,-21,18,-50,1448,-71,-517,10,-13,21,1051,119,-325,6,18,14,1136,-236,-322,13,-4,42,2149,-194,-543,17,-21,56,1940,-100,-560,10,-73,59,-203,257,-272,16,-41,62,-3677,462,1535,25,-101,44,537,34,-512,-1,21,1,-944,-173,402,-1,-52,7,893,-143,-429,-8,0,-25,-1230,-126,531,-1,-36,0,-29,105,15,-5,-34,-7,-461,161,107,3,8,3,-565,19,244,1,-11,7,-69,68,5,4,7,8,-87,-116,-4,-3,9,-11,137,-2,-35,4,-3,0,-33,-1,-9,2,-2,3,-9,-8,-20,-2,2,-1,46,39,-10,2,-4,7,-42,-30,20,2,5,-6,85,-30,-59,-8,6,-9,-77,22,80,4,-6,10,-10,9,6,6,-3,6,209,22,-99,t_right
27,155,21,-5070,712,1602,-21,47,-66,-283,-528,-43,-24,97,-86,622,159,-354,-4,21,-37,1628,-193,-342,-27,5,-67,1518,-79,-298,0,4,2,1169,-74,-282,2,-5,13,1571,-313,-427,1,-2,20,1197,-168,-328,11,-9,46,1215,-207,-324,7,-45,49,389,-8,-75,3,-49,31,-178,398,-107,9,-58,67,-1018,246,263,9,-54,24,-411,-173,185,-11,-51,-22,-512,38,83,3,-31,7,-332,103,123,-5,-23,-8,-570,-90,61,-2,-18,-9,-325,63,114,-4,-13,-1,-493,103,131,5,-1,2,-448,44,145,1,9,7,2,31,-6,2,-3,-1,31,-37,-41,2,7,2,-16,-23,-25,0,2,5,129,-33,10,-2,-1,-9,60,49,-31,2,3,4,-154,-41,35,0,2,-2,209,5,-60,1,-2,1,-119,-26,39,0,4,1,22,11,-13,0,-1,-4,-52,-26,38,3,-3,6,129,65,-65,t_right
15,295,-94,-4344,594,1080,-17,11,-22,1203,-333,-20,-19,14,-67,1027,-115,-333,-5,20,-26,823,-107,-228,-11,-7,-13,741,-100,-148,-4,0,-5,911,-66,-294,-2,4,3,635,-93,-131,8,-12,36,1063,-100,-356,0,2,24,907,-111,-191,15,-36,63,449,2,-100,8,-43,40,520,-67,-160,6,-51,28,-68,491,-278,11,-62,69,-1279,-153,625,-6,-53,-35,-421,-222,-88,-13,-50,-14,-395,214,263,4,-26,3,-715,238,169,1,-15,9,-495,-136,57,-4,-4,-16,-598,21,164,6,1,9,-96,78,51,1,-2,2,-209,23,64,2,11,2,62,-66,-33,2,1,0,99,8,-17,1,0,2,41,-54,-49,-2,4,-9,13,-10,-5,0,-2,4,3,27,7,0,1,-2,9,-53,-39,0,2,-1,-31,88,82,2,-9,12,1,-45,-39,-2,16,-5,-27,-10,2,4,-11,2,152,60,-14,t_right
27,152,31,-4560,370,1027,-27,52,-72,240,-535,-51,-16,97,-71,200,197,-98,-18,16,-43,207,270,137,-2,13,-27,1329,-60,-395,-16,29,-65,1059,-97,-66,-1,-31,1,1256,-107,-339,-7,17,-14,467,-81,-195,8,-7,22,1132,-154,-271,0,15,39,2277,-348,-519,7,-28,37,562,29,70,20,-74,75,1093,206,-692,2,-25,53,-886,238,213,19,-104,52,-1136,130,471,3,-51,-10,-909,-172,237,-5,-54,-12,-967,-54,128,-4,-12,-7,-774,163,151,0,3,9,-523,-30,175,0,5,-1,-99,67,36,5,-10,3,-209,-13,61,0,11,-4,111,-56,-71,0,2,1,-89,27,53,5,0,10,136,-20,-33,0,-4,1,138,-54,-113,-5,4,-16,-184,74,111,6,1,14,105,-5,-10,-3,-2,-8,-91,-77,-24,-3,9,-5,12,70,29,6,-7,14,58,-40,-21,-2,3,-9,24,-15,-29,t_right
22,157,16,-3659,79,1045,-17,34,-66,-875,94,101,-13,88,-50,223,237,-73,-8,8,-31,769,-1,-150,-17,27,-61,1406,-213,-346,-13,16,-41,970,-12,-113,-2,-16,2,898,-79,-141,-2,1,4,1435,-281,-441,0,4,9,885,-29,-151,12,-20,70,1712,-270,-587,16,-31,34,1178,4,-591,9,-41,68,346,598,-255,12,-68,41,-2196,181,989,16,-105,17,-540,-257,-69,-7,-18,-25,-1642,-193,564,0,-27,15,23,130,-82,-5,-6,-7,-730,-68,251,-2,-1,2,63,129,29,5,-8,5,-272,17,87,-1,5,-2,10,-32,-79,2,-3,-1,20,38,32,1,2,4,-14,-86,4,-5,-3,-5,48,53,-13,6,0,5,-105,-48,6,-3,1,-2,41,5,-11,0,3,-4,76,25,7,0,-7,1,-18,-1,-8,2,-5,7,5,-30,-25,0,3,-9,-15,23,19,2,2,3,-105,-23,-18,t_right
5,168,16,-5368,647,1694,-16,63,-69,-210,-110,311,-24,90,-85,1081,-91,-586,-20,7,-66,1853,-54,-312,-24,-8,-43,1297,-149,-570,-3,16,-4,1047,-62,-204,2,-13,5,922,-162,-338,2,5,9,758,-150,-314,8,7,42,1786,-268,-532,20,-16,40,1283,43,-459,10,-49,64,488,-34,-211,7,-63,46,-609,251,101,18,-75,45,-1533,251,756,11,-66,15,379,-124,-140,-8,-57,-17,-1258,-126,258,-6,-13,-9,-835,118,290,0,-21,5,-596,152,204,1,-2,0,-635,-67,186,4,4,4,19,46,-26,0,2,2,-119,-36,45,3,5,4,283,28,-86,0,2,-7,-118,25,72,6,3,0,-2,15,-57,3,7,10,87,-197,-78,-11,-3,-21,24,93,80,8,-7,23,-100,-54,-37,-7,11,-15,141,30,-48,2,-4,3,-169,33,99,2,6,6,102,-54,-64,-1,-5,-5,103,59,-22,t_right
23,159,18,-4448,128,1374,-18,42,-55,682,31,-346,-17,80,-42,-604,24,307,-13,17,-49,226,-21,-20,-19,41,-73,1174,-117,-348,-22,-16,-45,868,108,-243,-8,13,-28,1238,-201,-386,3,-14,1,1142,74,-259,2,12,21,1935,-274,-677,7,16,40,2153,-99,-398,23,-32,70,1363,-188,-402,6,-81,54,-249,301,-83,12,-56,60,-2747,528,861,28,-90,57,-368,-212,15,-5,-9,-23,-1007,-124,329,-1,-35,12,196,104,-203,-1,-11,-16,-1098,-168,335,0,-12,6,225,86,-24,-4,-16,-11,-568,-38,173,1,-1,5,53,80,-48,0,-3,-1,-308,16,82,4,9,7,-109,-3,68,-1,-4,0,282,-9,-101,-1,1,-7,-255,-47,83,5,3,6,211,26,-59,-4,0,-7,-136,-34,26,-4,2,-2,-135,100,79,9,6,13,266,-141,-152,-7,-1,-15,-58,32,43,6,-6,12,14,29,23,t_right
13,155,25,-5530,-23,1812,-24,67,-87,250,-239,-380,-36,40,-78,68,371,-325,-20,64,-62,1674,-80,-459,-12,3,-70,1944,132,-243,3,-9,-6,1229,-30,-226,7,-1,11,810,-106,-254,-6,11,4,1538,-262,-342,6,-4,24,664,157,-16,19,-21,73,891,-166,-361,7,-19,49,921,-105,-313,6,-61,28,-261,313,-64,14,-49,70,-1291,350,382,21,-57,26,-371,-178,105,0,-45,-6,-703,-62,145,-1,-32,-1,-454,-68,112,-3,-20,-3,-566,-89,135,-1,-5,-5,-272,82,137,0,-22,3,-446,3,108,1,9,2,-240,17,88,2,0,1,72,27,-75,0,9,3,20,-102,37,-2,-9,-9,7,63,-5,6,6,12,-27,-48,3,-4,-3,-6,139,21,-53,0,5,-2,-100,47,56,3,-1,1,88,-29,-58,-4,-2,0,-89,-45,33,1,3,1,4,67,52,6,-8,11,169,-89,-136,t_right
14,160,-4,-5325,12,1885,-37,48,-98,146,8,-461,-19,98,-62,392,-110,-276,-17,29,-63,2073,-129,-570,-14,-16,-54,988,360,-120,3,7,18,1377,-63,-297,8,-7,3,998,-108,-247,3,14,16,1768,-151,-396,2,-12,37,1076,-18,-56,19,-54,68,609,-5,-351,10,-22,48,311,62,-153,6,-89,44,-1125,245,80,11,-38,38,-938,-59,514,13,-58,9,-88,17,-137,-11,-32,-12,-955,-198,351,-3,-24,-3,-187,74,-20,-3,-26,-4,-505,52,133,-2,-8,1,-400,-56,72,-5,-6,-4,-227,93,101,6,-1,12,-68,33,8,-4,6,-9,-107,38,22,6,-5,11,57,-29,-40,-3,5,-8,13,-40,-45,-2,-2,-3,14,93,94,5,-7,8,-38,-87,-61,-4,11,-9,-36,29,41,1,-10,6,58,35,7,1,5,-2,-131,-59,6,-1,3,3,15,50,33,1,-1,1,92,-42,-30,t_right
31,151,42,-4726,717,1000,-17,74,-76,-325,-735,93,-27,75,-90,816,520,-299,1,52,-32,32,2,189,-14,-13,-57,1226,54,-228,-16,26,-70,1049,-14,-142,-11,-27,-4,1426,-79,-236,5,1,3,692,-350,-363,1,8,11,1195,-365,-276,3,9,27,2801,-491,-813,17,-20,59,504,101,-49,17,-52,82,18,219,-462,20,-26,56,-1717,354,804,3,-72,33,-271,-46,-30,14,-36,22,-651,-91,210,-12,-35,-3,-136,-77,25,-9,-47,-12,-730,187,284,2,-18,18,-173,85,0,-3,-12,-19,-492,56,192,2,-5,5,-530,16,160,4,0,8,-48,6,-26,-2,2,0,-71,-65,23,4,2,-1,121,51,-63,-2,0,1,-101,-51,115,0,4,0,161,-20,-92,1,-4,0,-63,1,-6,-1,0,-2,14,31,-5,3,-2,6,38,-5,-9,-6,7,-10,-77,11,-3,9,-8,19,143,-30,-37,t_right
18,155,5,-4631,758,1287,-21,61,-82,-724,-510,356,-20,73,-91,-460,420,-32,-25,32,-47,2154,-220,-434,-12,-6,-66,1742,-180,-493,-8,-7,-20,1392,-111,-353,3,-3,15,968,-261,-367,2,17,14,2393,-378,-674,8,12,40,1790,-164,-175,27,-72,91,1058,12,-538,5,-40,40,-322,539,-154,16,-95,84,-2798,500,1099,18,-69,35,-40,-560,-366,-20,-37,-49,-1540,-34,497,2,0,20,-222,160,34,-1,-3,-3,-483,-82,208,-7,-11,-7,-147,170,156,4,-13,2,-395,28,54,2,9,4,-200,-13,35,2,10,5,103,75,-20,1,12,-3,40,-126,5,0,-5,0,191,45,-35,1,-5,1,-199,-18,29,6,10,7,288,38,-119,-6,3,-5,-153,-159,61,1,1,-9,129,142,5,4,-8,13,-179,-96,17,-8,11,-14,101,61,-3,6,-5,11,-90,-23,14,0,3,-4,101,1,-41,t_right
0,150,-46,-4744,394,1354,-17,104,-70,477,-23,-191,-20,19,-71,384,60,9,-10,18,-40,1015,-128,-522,-11,5,-32,1847,-102,-232,-6,-24,-20,566,8,-169,-1,23,6,967,-273,-201,2,-21,9,937,-169,-312,8,31,42,2433,-435,-693,13,-35,53,878,-89,13,10,-64,49,151,274,-573,7,-30,80,-849,319,263,14,-83,41,-966,158,469,4,-68,1,-523,-16,233,1,-41,-5,-982,-117,148,-6,-21,-9,-651,95,135,-1,-2,6,-473,-34,132,-5,-13,-3,-231,80,95,1,-4,2,-460,95,144,9,9,13,114,-59,-109,-5,5,-10,135,-10,-8,2,-6,5,-22,-24,3,2,6,-3,-48,-5,2,-2,0,1,-64,56,-8,4,4,4,164,-66,-31,-6,-5,-9,-25,5,19,6,0,8,17,53,30,-2,1,-6,72,-67,-79,-3,-5,-4,-88,58,38,4,1,7,27,-16,7,t_right
18,170,12,-4627,290,1383,-14,42,-58,265,-224,-91,-26,74,-64,633,145,-419,-5,43,-50,-6,-160,140,-16,-10,-65,63,202,22,-10,22,-26,1418,-320,-626,-20,-5,-59,1305,81,56,2,-32,4,1580,-45,-576,9,44,37,2807,-380,-755,13,-3,58,2123,-118,-65,11,-81,65,653,87,-415,19,-30,88,-1764,585,378,21,-93,49,-2376,133,661,10,-33,25,705,-212,-570,0,-44,-9,-593,-183,182,-18,-25,-26,-748,-36,254,4,-47,9,-601,122,234,-1,-10,1,-540,-71,90,-6,8,-10,-456,175,192,9,-3,22,-24,-40,0,1,6,-7,40,-39,8,0,-3,7,257,39,-75,0,-3,-7,-127,7,-1,3,4,2,-54,-16,22,-1,1,-2,5,-30,11,-5,2,-10,-13,-36,-9,2,-3,8,-63,59,37,-3,8,-15,-115,106,117,21,-16,39,370,-278,-328,-21,20,-41,-8,48,106,t_right
23,159,24,-2508,259,651,-15,43,-61,-1474,294,570,4,69,-20,-390,231,111,-15,27,-48,151,-216,4,-14,26,-78,690,-106,-299,-31,17,-46,1932,-295,-608,-6,-17,-31,911,21,-43,6,2,23,1194,-171,-419,-1,7,0,1123,-222,-178,14,-24,47,576,17,-284,6,11,30,511,-199,-294,7,-30,31,-1095,290,356,16,-14,55,-294,-65,11,0,-8,7,544,-102,-112,4,-35,27,855,159,-262,3,-22,35,-13,40,161,3,-72,11,-498,43,255,6,-36,17,-530,-38,-3,3,-38,4,-281,-79,-7,-9,-16,-5,-351,-22,-21,-7,-12,0,-365,19,222,-7,-34,-4,-121,103,7,0,-8,0,-418,35,151,-3,-4,-7,-374,168,103,6,5,17,-47,-17,38,2,9,-2,98,-60,-31,-4,-10,0,82,44,-11,4,2,-8,-173,29,10,5,7,11,77,-103,-12,-8,1,-11,61,26,-41,t_right
12,159,-15,-2072,125,670,-4,37,-32,-1841,265,656,0,59,-30,-630,0,12,-15,38,-57,161,-148,-119,-33,33,-78,815,-355,-241,-22,4,-68,1467,-30,-330,-7,-12,-25,1333,185,-271,7,-9,15,1088,-50,-352,3,11,10,1090,-136,-245,8,8,35,1729,-188,-471,13,-1,50,747,-75,-92,11,-41,55,-421,40,-24,16,-35,50,-452,193,-161,14,-22,70,811,-173,-245,-8,-51,-12,-612,132,358,9,-62,47,-257,99,248,2,-73,-4,-667,-164,145,-16,-33,-29,-1478,142,439,4,-28,28,-274,130,-71,-2,17,-11,-625,-34,147,-1,-1,7,34,152,42,10,-5,7,-148,-87,-22,-4,15,-7,266,1,-36,0,-12,-1,-197,35,10,5,6,5,102,-86,-5,-6,1,-10,-41,43,-5,5,-1,9,-25,26,29,-1,5,-3,75,-134,-21,-8,-4,-6,-58,188,44,14,-3,27,63,-120,-94,t_right
13,161,-12,-3705,516,1007,-11,62,-59,-837,-266,517,-23,53,-71,-26,192,-174,-6,65,-31,-422,291,305,-22,-33,-37,2782,-984,-933,-28,6,-119,881,178,-323,8,5,15,1591,11,-328,2,-5,13,517,35,-174,5,22,30,1197,-305,-128,-4,-11,1,789,9,-138,11,-28,54,-1515,393,240,4,19,34,-82,-230,0,4,-27,11,-434,105,83,2,7,21,1341,-162,-421,8,-32,27,1147,209,-278,12,-45,51,1181,133,-738,16,-38,40,-1470,-37,690,5,-70,19,-161,-65,118,0,-61,-3,-697,89,245,1,-23,-3,-911,-246,144,-12,-20,-13,-658,196,241,13,-4,18,-256,13,68,-6,-3,-11,-201,-34,26,1,2,3,-182,38,63,5,-1,8,274,-16,-126,-3,-1,-10,-236,-77,61,5,1,13,97,28,-51,-7,5,-14,-31,-35,39,3,-7,5,-38,97,-3,2,7,6,108,-100,-30,t_right
12,179,-16,-5304,660,1213,-6,54,-59,574,-172,-224,-14,66,-89,255,316,-74,-2,18,-33,1000,-393,-252,-27,8,-69,2023,-402,-301,0,-9,-17,842,172,-132,-1,1,12,623,-132,-31,0,-8,-1,483,-53,-152,-1,12,12,936,-115,-138,7,1,39,1747,-293,-406,13,-17,54,823,-141,-170,8,-60,55,1001,117,-629,2,-32,55,-256,277,-20,9,-100,59,-1114,235,541,6,-76,-3,-983,-188,155,-9,-43,-24,-1717,35,431,1,-3,13,-757,212,195,4,16,6,-365,-59,80,-1,-7,-6,-4,66,43,2,5,10,51,-44,-22,-2,4,-11,-62,-52,18,1,3,5,126,91,-6,7,-11,9,-23,-55,-39,-1,11,-3,166,-20,-126,-6,-1,-8,-227,-29,100,4,0,6,159,60,8,3,-7,-5,-136,-24,-12,-6,12,7,64,7,14,5,-5,-2,-10,-1,3,5,2,-4,32,-19,-36,t_right
10,161,2,-5108,829,1196,-13,66,-37,-203,-70,446,-16,33,-62,1943,-310,-791,-10,44,-67,2551,-780,-488,-12,-26,-42,407,377,-207,7,22,35,1163,-161,-285,4,-19,12,191,-26,-60,8,6,42,2012,-470,-567,3,-29,20,1585,-78,-234,-2,-78,47,-116,348,-166,5,-56,43,-982,295,506,17,-88,28,-789,-323,31,-19,-34,-38,-693,22,139,-17,-42,-5,-1431,311,404,8,0,23,-581,8,100,2,9,-11,-242,161,98,9,7,20,-128,-93,15,-3,11,-7,269,-8,-99,-1,-3,1,-42,14,101,1,3,2,109,-30,-96,4,4,-3,-77,51,49,6,-3,16,285,-123,-147,-11,6,-26,-129,87,51,8,-3,19,3,6,23,-6,1,-12,-42,-44,0,5,3,4,-33,54,39,1,-8,6,131,-90,-99,-7,11,-12,-80,25,67,7,-5,10,62,45,3,-3,0,-8,-48,-38,-26,t_right
29,162,8,-4177,684,979,-23,57,-67,-352,-351,253,-14,53,-62,-264,217,16,-11,34,-59,844,-106,-310,-32,4,-67,1618,-495,-416,-10,1,-71,1214,167,-95,3,-13,13,1202,96,-292,4,12,32,1444,-280,-307,8,0,24,2160,-363,-620,14,7,71,1043,-221,-72,10,-56,59,-71,0,-66,2,-43,55,-649,362,63,12,-64,41,-1441,268,154,4,-42,39,137,-176,41,-6,-42,-25,-1343,22,459,-2,-35,12,-234,206,-90,-4,-4,-6,-922,-30,327,3,-9,7,-115,127,-57,5,14,5,-144,-111,83,-3,-7,-8,38,100,-4,8,-1,12,-89,-82,-18,-4,11,-8,166,-21,-27,3,-9,-1,-42,49,16,0,2,5,-34,-33,-37,-4,9,-9,36,2,65,5,-13,12,-13,-15,-34,-1,6,-9,12,3,-13,1,2,4,-19,20,29,-2,-4,-9,38,0,-21,-1,5,4,-141,-51,14,t_right
-30,247,-172,-3950,45,653,-22,65,-88,1838,-350,-348,-5,-37,-49,1588,476,-25,9,-5,44,816,16,-287,1,12,13,685,-235,-2,1,-14,8,1140,-140,-408,3,24,33,1035,-187,4,12,-48,65,416,-58,-5,2,-28,28,560,69,-365,6,-54,60,-75,223,-184,3,-29,47,-942,126,224,19,-69,25,-129,-81,170,-17,-60,-28,-1488,54,308,4,-26,16,-524,179,34,1,4,1,-563,-118,146,1,0,-8,-395,98,98,9,3,16,-1,-76,25,-5,2,-8,89,3,-74,1,-4,3,-51,47,47,6,6,1,47,-72,2,-4,-2,-1,34,7,-36,1,5,0,-47,20,3,2,-10,7,220,3,-100,-4,7,-11,-249,-72,125,1,-1,6,106,95,-15,5,-4,-2,-29,-84,-11,-5,4,-2,-43,63,33,3,0,3,52,-51,-17,1,-3,-6,-5,46,-9,1,2,4,-33,-31,1,t_right
22,153,-24,-4981,618,1147,-17,89,-58,-346,-358,116,-27,21,-102,579,187,-259,-10,45,-46,1711,-429,-526,-23,-20,-71,2292,-125,-139,5,-16,16,1469,77,-380,3,24,29,1569,-194,-315,11,-21,40,373,-50,0,4,-4,32,273,37,-265,13,-14,63,442,-84,-52,1,-42,26,351,37,-189,14,-57,63,-45,259,-337,12,-23,32,-637,-176,533,-6,-105,-13,-826,7,188,-11,-35,-1,-1026,124,194,7,-12,12,-748,53,128,-3,19,-5,-379,17,90,1,-2,5,-143,70,116,4,-8,4,-11,-71,-27,-2,4,-8,48,33,-12,2,4,4,-33,4,29,4,-1,-1,77,-14,-33,-2,1,2,-17,-12,0,-1,-2,-3,-21,21,-5,-2,2,-1,10,3,1,2,-2,6,42,-26,-10,0,0,1,51,-27,-26,-4,1,-8,-46,69,44,6,-3,10,36,-96,-12,-5,1,-11,-45,50,-16,t_right
28,160,-11,-4393,586,1030,-16,59,-49,-347,-342,194,-16,31,-78,-47,44,-96,-15,26,-55,2235,-513,-719,-30,20,-89,2356,-6,-311,12,-4,31,1444,172,-271,8,-1,28,173,101,132,10,-17,52,391,-192,-236,0,12,21,1026,-195,-93,7,-38,49,2277,-184,-498,2,-59,33,81,271,-294,7,-77,74,-1543,47,492,5,-99,-3,-1127,-139,158,-24,-59,-34,-1966,340,338,18,29,49,-185,131,-6,-7,20,-13,-594,-125,232,4,-14,1,207,156,14,1,-8,4,-35,-73,-33,6,14,1,93,-54,-1,0,-4,-3,29,-16,-22,-4,-7,-8,-45,-2,2,3,6,9,7,-2,-3,2,-3,-4,4,3,17,-2,-1,3,-20,63,-6,1,2,0,-9,-95,-35,-3,-2,-7,18,66,69,7,0,8,-18,-44,-86,-6,2,-9,30,2,58,2,-6,5,-11,33,2,-1,3,0,-9,-27,-22,t_right
22,165,-39,-5677,412,1306,-4,94,-31,991,-225,-235,-40,24,-103,183,-22,45,3,3,-49,1882,-231,-808,-16,41,-49,1516,80,70,-1,-38,10,1798,-202,-416,0,24,3,1047,-60,-216,17,3,75,2287,-357,-362,8,-36,38,1819,-94,-465,-4,-57,54,-1050,345,-119,16,-69,78,-1687,359,645,10,-78,12,-756,-260,148,-16,-44,-15,-775,63,136,-7,-12,5,-1071,194,220,9,2,14,-217,-23,-24,-4,-7,-5,-245,63,93,7,1,4,-14,-25,41,-1,-11,0,90,6,-60,-4,5,-1,-110,-10,-11,3,2,0,13,-3,53,-1,-3,1,-22,-29,-23,2,-2,2,140,16,-67,-2,-6,-6,-83,2,58,2,-1,6,-2,26,-22,-2,0,-2,5,-33,-24,2,-3,-4,-5,-6,21,-1,-2,1,-48,-1,25,0,0,1,-36,62,-1,2,1,2,17,-98,-25,-4,1,-3,8,80,34,t_right
1,167,-50,-5572,326,838,17,117,-38,100,-40,300,-28,18,-88,1400,-225,-194,-17,1,-60,2229,-201,-671,-4,16,-39,1449,153,-94,9,-6,46,2557,-264,-477,4,8,34,1831,-174,-147,15,-65,83,1855,-81,-664,-1,-9,45,-457,197,175,6,-141,57,-1535,99,351,-4,-49,-9,-1709,-24,292,-4,-57,20,-899,132,81,-3,-5,-7,-897,-8,127,5,-1,4,-127,137,-35,2,8,7,-77,-83,82,-5,-12,-11,-21,65,-4,4,-5,10,-121,6,-4,1,4,-1,121,-3,-4,1,5,-4,-67,12,32,-2,-9,5,70,15,23,0,1,-8,-75,12,0,6,-1,5,52,40,4,1,-2,-1,3,-84,-22,0,-5,-4,-133,32,8,4,1,6,34,-71,-26,-4,1,-7,5,-3,1,4,-1,5,-17,21,4,-2,-2,-3,50,-7,3,0,0,0,-22,30,-3,2,0,1,-9,-24,19,t_right
0,163,-37,-5628,364,976,8,135,-42,676,19,-76,-30,6,-89,798,-40,-108,-1,46,-30,1062,-87,-261,-13,-1,-71,1273,-94,121,-4,-19,0,1729,-77,-460,-9,3,-6,892,-24,-61,14,-8,49,1806,-184,-597,2,13,42,2369,-287,-529,19,-72,79,985,-78,-509,2,-22,58,-1520,221,503,22,-125,50,-1039,13,280,-10,-48,-13,-1207,48,269,-7,-53,1,-935,175,17,-2,5,6,-989,-29,335,0,2,0,-80,145,77,8,-10,9,-187,-55,27,-3,-6,-8,-36,-25,-8,3,9,6,-19,35,49,1,-1,-2,31,-44,-3,2,-6,-5,-52,46,-18,-2,7,2,25,-25,24,1,-4,4,60,-11,-24,2,-3,2,49,45,-59,0,3,-3,-89,-143,36,-4,-3,-6,-80,101,66,7,-3,10,16,-50,-52,-6,7,-10,16,25,7,4,-4,8,66,-19,-37,-3,0,-5,-39,30,36,t_right
9,162,-12,-4312,589,947,8,97,-29,401,-177,-77,-27,35,-93,287,-64,380,-6,-18,-29,-156,75,-267,-22,75,-77,1367,-290,-304,-11,-32,-35,1021,49,-191,0,-10,-6,1672,-292,-591,3,39,31,3951,-416,-1022,9,-11,53,1721,21,174,27,-107,90,-263,153,-363,10,-39,85,-1046,290,173,23,-105,44,-493,-433,101,-33,-68,-54,-1794,91,317,-15,-35,6,-2164,485,637,20,19,31,-669,55,169,7,23,10,489,-137,-111,-10,-23,-15,-12,-31,4,10,-1,4,121,78,-37,-5,1,-2,-95,-59,2,0,1,-3,34,91,19,6,0,-3,-101,67,58,5,-1,17,132,-220,-84,-11,6,-20,-33,61,72,4,-9,8,-54,96,33,8,2,9,53,-169,-114,-13,5,-18,-64,155,77,11,-6,18,66,-75,-54,-7,0,-17,-33,12,11,6,2,11,-22,23,8,-1,1,-1,29,-62,-15,t_right
3,173,-44,-5981,393,1231,-6,142,-47,-137,-212,406,-30,-8,-114,821,123,-285,-25,18,-58,2724,-344,-770,-15,11,-64,2251,228,-40,13,-47,41,1946,-103,-740,5,48,42,2518,-302,-661,18,-32,76,1224,-180,-146,13,-61,53,-52,-26,-590,11,-28,73,-2041,412,968,13,-100,41,-230,-93,-85,-12,-45,-14,-1103,56,341,0,-41,11,-692,162,61,8,6,3,-933,-56,269,-4,-3,0,-286,51,71,8,-4,4,-137,-34,48,0,3,-1,125,22,-83,2,1,2,-51,-97,47,-4,-1,-3,109,42,-47,4,-10,-1,-113,48,16,1,10,1,62,-17,-14,-4,3,-4,-33,-49,73,5,-7,10,64,-1,-81,-4,1,-8,-59,-23,53,3,-4,4,-17,-14,25,-3,5,-6,-61,18,-36,3,-1,6,50,-2,-4,-3,2,-2,6,0,-8,-1,-2,1,-12,66,33,1,-1,0,16,-83,-52,t_right
19,163,-36,-6053,356,1462,-18,64,-55,626,-164,-188,-25,76,-111,1440,-70,-291,-33,-6,-57,2380,30,-356,3,-14,-13,1508,193,-334,9,14,40,1945,-416,-622,2,3,20,1600,-152,-200,21,-34,81,1722,-296,-640,6,-48,54,622,-158,-456,-5,-71,36,-2352,395,1006,6,-95,19,-952,180,158,-3,-46,17,-1171,95,270,3,-11,-3,-810,82,80,-2,16,8,-411,31,162,9,-9,5,26,-46,15,-4,-7,-4,32,-1,-21,3,-9,0,-172,1,-17,-6,16,1,47,27,2,6,-4,-1,-16,-19,24,0,-9,-1,8,-33,-16,-1,5,0,-20,20,21,5,-3,1,-89,12,-74,-3,14,0,57,-40,52,-1,-12,0,43,-21,6,-1,4,-4,-19,35,-40,4,2,6,53,13,39,-2,-7,-6,-26,5,-25,2,8,4,0,6,-3,-2,-9,-2,25,-21,1,5,2,1,-61,-29,11,t_right
-7,156,-58,-5929,423,796,9,141,-47,1031,-106,101,-27,-19,-91,2178,-205,-225,-9,26,-32,1622,84,-485,5,9,21,2845,-383,-360,8,-14,20,1785,-197,-276,3,-49,60,926,-4,-378,5,-30,56,-379,87,-30,4,-74,42,-506,165,194,4,-65,20,-47,-27,-58,-8,-69,-9,-1248,89,237,-6,-38,8,-938,169,283,13,-9,0,-999,-50,191,-5,-5,3,-220,38,28,1,3,-1,-190,33,64,3,-1,7,44,-20,-23,6,10,-6,-35,-50,0,-1,-5,-3,-22,89,15,3,3,10,-21,-89,-51,2,3,-5,137,20,-44,-6,-6,2,-58,-64,19,0,6,-2,25,66,6,3,0,3,27,-112,-16,-3,-1,-7,-56,91,70,3,-5,9,39,-75,-73,-4,5,-7,-2,60,43,5,0,7,-39,-7,-30,-3,0,-4,61,5,-3,4,-1,1,8,-39,-30,-3,0,3,95,-24,5,t_right
-10,165,-45,-6094,335,1472,10,134,-36,-53,-130,-65,-43,41,-121,1422,-309,-251,-14,-17,-65,2766,28,-829,-15,23,-27,1495,376,5,17,-13,53,3093,-294,-809,5,15,42,2132,-30,-230,27,-79,101,1924,-122,-763,11,-37,56,-174,-161,-96,-16,-122,-3,-3111,44,849,-1,-75,21,-1853,413,555,19,-51,28,-614,101,98,3,1,-9,-705,-236,-25,-5,-8,-1,30,110,29,-3,9,1,-355,-47,67,2,-4,-7,-48,74,25,2,-1,11,74,-30,-46,2,9,-3,-52,-134,33,-6,-5,-6,-1,108,49,5,-9,9,-5,6,-64,2,8,0,56,-21,-4,-1,1,-2,47,9,-19,1,-8,-2,-173,-38,33,1,9,1,122,76,0,-2,-2,-1,-37,-102,5,0,-3,-6,-18,49,-6,3,3,8,-31,-38,12,-3,2,-4,39,68,-4,5,-4,4,50,-83,-47,-8,4,-11,-36,34,66,t_right
20,173,-11,-6104,571,1526,2,129,-68,197,-243,-210,-30,46,-87,2186,-408,-517,-27,-13,-72,855,40,-284,-9,27,-38,1771,95,-161,4,-25,5,996,210,-149,11,11,44,3203,-494,-965,4,13,49,1758,2,-76,31,-72,78,1091,-73,-586,7,-66,53,-445,-52,-147,-9,-76,25,-2248,10,494,-1,-66,24,-1053,211,341,5,-29,1,-1042,102,394,8,-33,18,-208,7,27,-10,-2,-17,-518,-48,188,1,-29,0,-78,25,28,-2,10,2,-335,64,92,2,-3,-1,11,-4,-53,2,6,6,17,-4,57,-3,-7,-1,88,-8,-40,3,-1,0,-63,-3,-14,0,-4,-1,-2,10,48,-1,3,-2,-99,3,-27,-2,0,-2,39,18,29,5,2,1,33,-40,-15,-7,1,-6,-81,33,24,7,-3,12,93,-61,-35,-6,1,-12,-92,32,37,6,-1,12,42,-29,-34,-6,-1,-10,52,27,0,t_right
19,176,-28,-6208,532,1679,-7,84,-34,-290,-183,-299,-19,113,-89,2476,-322,-536,-18,-4,-62,2434,-72,-442,-12,-27,-34,848,189,-157,17,23,38,1729,-164,-482,-3,15,25,2411,-306,-231,22,-76,66,1859,-85,-699,8,-22,59,497,-312,-312,-5,-102,31,-1490,296,527,-13,-81,8,-1219,247,243,6,-72,22,-1598,160,529,5,-52,2,-727,37,9,-7,37,-8,-818,21,154,6,4,15,59,30,15,7,-1,1,43,-83,36,-4,-5,-8,-14,35,-10,1,-5,5,111,35,-88,-2,6,-11,-207,25,146,14,-12,25,134,-132,-134,-20,19,-34,-50,7,81,6,-15,16,13,100,37,5,0,3,-86,-106,-65,-4,5,-5,67,48,37,5,-7,7,-51,-33,-9,-11,5,-10,36,53,-15,9,-4,6,-42,17,26,-1,2,0,-31,-41,-35,-3,4,-3,36,24,11,4,-9,2,15,-28,10,t_right