AccX1,AccY1,AccZ1,GyrX1,GyrY1,GyrZ1,AccX2,AccY2,AccZ2,GyrX2,GyrY2,GyrZ2,AccX3,AccY3,AccZ3,GyrX3,GyrY3,GyrZ3,AccX4,AccY4,AccZ4,GyrX4,GyrY4,GyrZ4,AccX5,AccY5,AccZ5,GyrX5,GyrY5,GyrZ5,AccX6,AccY6,AccZ6,GyrX6,GyrY6,GyrZ6,AccX7,AccY7,AccZ7,GyrX7,GyrY7,GyrZ7,AccX8,AccY8,AccZ8,GyrX8,GyrY8,GyrZ8,AccX9,AccY9,AccZ9,GyrX9,GyrY9,GyrZ9,AccX10,AccY10,AccZ10,GyrX10,GyrY10,GyrZ10,AccX11,AccY11,AccZ11,GyrX11,GyrY11,GyrZ11,AccX12,AccY12,AccZ12,GyrX12,GyrY12,GyrZ12,AccX13,AccY13,AccZ13,GyrX13,GyrY13,GyrZ13,AccX14,AccY14,AccZ14,GyrX14,GyrY14,GyrZ14,AccX15,AccY15,AccZ15,GyrX15,GyrY15,GyrZ15,AccX16,AccY16,AccZ16,GyrX16,GyrY16,GyrZ16,AccX17,AccY17,AccZ17,GyrX17,GyrY17,GyrZ17,AccX18,AccY18,AccZ18,GyrX18,GyrY18,GyrZ18,AccX19,AccY19,AccZ19,GyrX19,GyrY19,GyrZ19,AccX20,AccY20,AccZ20,GyrX20,GyrY20,GyrZ20,AccX21,AccY21,AccZ21,GyrX21,GyrY21,GyrZ21,AccX22,AccY22,AccZ22,GyrX22,GyrY22,GyrZ22,AccX23,AccY23,AccZ23,GyrX23,GyrY23,GyrZ23,AccX24,AccY24,AccZ24,GyrX24,GyrY24,GyrZ24,AccX25,AccY25,AccZ25,GyrX25,GyrY25,GyrZ25,AccX26,AccY26,AccZ26,GyrX26,GyrY26,GyrZ26,AccX27,AccY27,AccZ27,GyrX27,GyrY27,GyrZ27,AccX28,AccY28,AccZ28,GyrX28,GyrY28,GyrZ28,AccX29,AccY29,AccZ29,GyrX29,GyrY29,GyrZ29,AccX30,AccY30,AccZ30,GyrX30,GyrY30,GyrZ30,Label
-64,-144,-2,1627,-428,4333,-37,-126,4,500,-155,2159,-22,-115,6,372,-80,1160,-23,-136,5,473,-90,373,-29,-98,0,121,-39,811,-22,-66,1,-530,103,-959,-17,-38,1,-420,131,-1120,-22,9,0,-406,151,-1330,-13,47,-2,-607,209,-1151,3,68,5,-394,184,-582,20,76,2,-41,116,-557,21,81,-7,-14,94,-123,37,70,-2,-72,-14,1,32,67,-7,199,-31,403,26,39,-2,75,-93,436,13,32,-1,307,-87,608,7,8,5,206,-137,663,-5,-12,0,269,-59,457,0,-16,4,35,-72,530,-1,-21,-5,185,-12,147,0,-26,-6,-45,-10,121,3,-12,-6,10,9,-53,2,-4,-5,-14,15,-62,-1,3,0,-8,15,-44,-1,6,1,0,-2,-81,0,6,2,-7,1,4,0,3,2,19,5,6,0,-1,0,0,-8,27,1,-1,-1,0,-2,4,0,-2,-1,7,3,9,up
-109,-107,38,1497,-79,3568,-59,-108,11,390,-45,1714,-41,-92,13,218,-17,968,-33,-94,15,281,-56,439,-35,-91,5,133,-69,801,-14,-66,0,-382,-36,-828,-10,-36,5,-255,-3,-1000,-9,-2,0,-283,7,-1077,-2,33,-7,-374,62,-1049,9,68,-1,-360,100,-714,17,76,-3,-47,117,-631,27,88,-6,-99,87,-183,29,65,-11,-45,83,-73,31,68,-4,5,42,345,27,52,-4,162,-4,344,13,36,-2,81,-68,716,0,5,0,244,-60,586,2,-2,4,231,-86,571,-5,-27,-1,178,-57,485,-4,-32,-1,78,-26,368,0,-29,-4,28,0,57,0,-16,-2,-47,-8,1,-2,-4,0,-39,-3,-94,-2,2,1,-34,-3,-82,-2,5,0,-15,0,-64,0,6,1,19,-2,-75,0,3,-1,4,-6,-28,0,1,-1,8,0,2,0,0,-1,0,0,-4,0,0,0,-1,2,12,up
-49,-161,15,2078,-93,3956,-23,-122,10,872,-95,1840,-15,-119,8,375,-70,1024,-21,-135,12,365,-66,327,-17,-107,3,79,-23,700,-17,-51,5,-607,23,-1009,-20,-28,6,-527,36,-931,-25,12,4,-365,50,-1052,-13,53,-1,-462,89,-1087,-8,65,6,-322,77,-450,8,56,0,-82,76,-434,23,69,-1,-37,63,-265,35,58,-7,-134,61,-170,41,77,-6,-52,21,85,31,58,-6,12,-57,303,27,45,-5,230,-77,284,17,23,-11,182,-54,467,9,14,-1,259,-65,585,-2,-14,-1,242,-54,624,3,-10,-2,258,-3,291,0,-15,-3,79,-7,310,-3,-14,1,69,-4,215,-1,-14,0,32,-3,99,-1,-8,0,6,-3,0,0,-7,0,-8,1,-29,0,-3,0,-29,13,-66,0,0,0,-35,-9,-20,0,2,0,1,3,-53,0,1,0,-30,-4,-19,-1,3,1,-9,0,7,up
-101,-124,11,1919,153,3695,-55,-102,4,962,11,1802,-35,-100,2,571,-14,1049,-28,-120,8,367,-41,508,-28,-111,3,219,-17,757,-11,-74,0,-651,-42,-943,-13,-45,4,-635,0,-1067,-13,-2,2,-527,9,-1059,-11,43,-1,-448,105,-1231,4,70,0,-527,123,-816,14,79,13,61,146,-605,43,102,3,-45,95,-346,42,73,-4,-25,146,-114,52,99,-1,-130,-33,326,28,65,-2,277,-76,449,16,45,-8,153,-134,783,-7,-5,-8,329,-111,659,-6,-8,2,239,-154,799,-15,-50,-5,311,-34,553,-2,-30,-2,36,-33,317,0,-32,-6,55,6,40,0,-16,-2,-44,13,-56,-1,-4,-1,-37,7,-104,-2,4,1,-39,2,-81,-2,8,2,-18,11,-87,0,8,2,0,0,-15,0,6,2,13,-1,-7,0,1,0,16,7,19,1,-1,0,14,-2,20,1,-4,0,8,-7,18,up
-111,-112,19,1773,98,3685,-52,-103,10,990,-8,1706,-42,-111,7,336,-40,981,-41,-118,16,204,-40,379,-30,-100,7,49,-31,693,-15,-50,6,-416,-26,-1012,-18,-35,6,-506,-17,-960,-15,14,4,-369,18,-997,-2,50,-6,-403,43,-1076,4,71,-1,-261,78,-604,22,58,-10,-231,60,-405,28,81,-10,-116,78,-101,38,74,-7,8,54,20,29,58,-9,165,42,180,24,53,-5,95,-29,464,11,28,0,326,-32,517,8,6,1,195,-60,522,0,-15,-2,207,-40,537,4,-14,2,78,-50,462,3,-25,-3,158,0,240,8,-16,-3,-11,3,184,4,-14,-4,49,13,18,-3,-9,0,-43,-5,11,-10,1,4,-13,-9,-69,-14,1,5,-9,0,-72,-16,5,7,-11,-9,-66,-13,5,3,-21,-4,-61,-6,6,4,-2,-3,-60,3,1,-2,3,4,-50,7,1,-2,-34,-18,35,up
-40,151,18,549,-89,2148,-18,73,13,717,-20,1604,-14,8,1,530,-10,1333,-12,-25,4,489,12,1022,-10,-47,5,369,-10,967,-7,-121,3,105,-16,148,-13,-105,9,-161,-15,-368,-15,-88,6,-399,-50,-968,-19,-49,1,-444,-7,-1083,-12,-10,3,-570,10,-1120,-11,48,0,-412,55,-1150,-5,44,-4,-316,93,-1029,3,61,4,-23,181,-508,24,79,5,15,161,-243,31,80,-2,-22,92,120,28,64,0,48,8,422,26,47,0,123,-51,559,20,22,-5,84,-121,502,5,-10,-4,36,-154,664,-6,-26,-1,226,-86,456,1,-21,-4,154,-30,259,1,-17,-6,67,-14,76,3,-2,-2,15,-5,-2,3,-1,-1,0,-8,-6,0,0,0,-16,-4,7,0,0,0,1,2,16,0,1,0,2,5,-8,0,1,0,12,2,-2,-1,0,0,5,-2,3,0,0,0,7,-1,13,up
-40,158,18,574,-112,2143,-28,56,6,505,-64,1544,-26,19,3,490,-13,1249,-23,-21,3,456,9,991,-18,-38,2,368,10,1010,-12,-90,-2,208,19,287,-10,-115,-1,53,13,-139,-3,-97,1,-159,-5,-643,-4,-66,-1,-439,-43,-917,-7,-40,-2,-484,-29,-1058,-5,-8,-2,-603,-28,-1170,-4,41,0,-482,47,-1250,-2,54,0,-384,85,-863,6,73,2,-119,181,-682,22,92,3,-79,153,-214,31,110,6,152,126,12,25,76,0,82,1,612,19,51,2,249,-64,600,12,14,0,184,-138,747,0,-8,1,221,-131,620,-6,-42,-4,147,-93,671,1,-25,-3,173,-41,196,1,-24,-8,11,4,95,2,-5,-3,18,2,-43,2,-4,-4,-28,2,-7,0,1,0,-17,-1,-24,-1,0,1,-19,9,2,0,4,3,2,-12,-33,0,0,0,11,-6,13,0,0,0,15,0,2,up
-79,-138,7,1922,56,3723,-31,-103,5,1021,-65,1690,-25,-120,0,502,-106,947,-27,-127,1,227,-68,341,-19,-100,1,92,-33,691,-9,-49,2,-527,-27,-1014,-16,-33,-1,-643,17,-965,-13,15,2,-585,53,-1039,-1,56,2,-408,67,-1170,-3,74,1,-339,89,-619,12,64,-2,-161,102,-442,24,89,2,189,107,-153,32,70,-3,17,100,39,29,75,0,173,51,329,23,42,0,139,-31,622,15,29,3,293,-77,431,8,-9,-2,27,-107,716,0,-10,1,274,-100,409,0,-28,-5,46,-75,444,2,-16,-4,110,-28,115,1,-16,-7,8,-14,107,1,-5,-3,19,6,10,0,-4,-2,-12,8,15,0,0,0,2,8,-33,0,0,0,-5,5,-18,0,0,0,0,1,1,0,0,0,-7,-2,-7,0,1,0,8,-2,-4,0,0,0,2,-3,0,0,0,0,13,-5,13,up
-21,153,15,510,-17,1796,-27,68,18,379,-76,1376,-20,29,7,410,-35,1180,-24,-10,6,304,-4,974,-19,-27,4,303,41,914,-14,-76,-1,213,15,355,-9,-92,-6,26,14,109,-12,-113,4,-83,-23,-325,-5,-85,2,-154,-27,-857,-11,-51,2,-418,-61,-1050,-14,-28,4,-486,-29,-1006,-13,9,2,-399,8,-1076,-7,52,-4,-403,62,-1079,-2,71,0,-317,74,-624,10,71,-1,-77,108,-378,21,89,-2,-59,86,-38,25,70,-2,63,79,178,25,64,0,155,13,378,19,28,-4,138,-25,407,13,17,-2,131,-82,545,6,-13,-3,176,-65,432,6,-9,0,134,-76,379,4,-19,-6,53,-33,278,6,-3,-2,59,-17,149,3,-9,-5,59,-7,119,3,-1,-2,39,10,51,2,-5,-1,22,16,53,1,-1,1,16,7,43,1,-1,0,28,4,7,2,0,0,-12,8,-12,up
-116,-105,27,1546,-2,3770,-57,-119,9,630,16,1770,-36,-103,6,342,27,1075,-26,-110,11,320,-17,533,-27,-95,4,132,-36,930,-4,-77,-1,-363,-46,-921,-6,-38,3,-291,-39,-960,-12,-10,1,-344,-57,-1097,-15,27,-4,-390,10,-1042,-3,51,0,-345,82,-892,2,70,4,-151,125,-621,13,82,1,-158,134,-254,20,62,-6,-261,148,-86,35,91,3,35,73,147,25,54,-5,60,10,299,23,51,-3,176,-49,476,12,13,-5,165,-94,609,12,20,5,427,-110,370,0,-31,-7,81,-80,557,4,-9,2,169,-64,299,3,-25,-4,18,-27,229,4,-10,-3,40,-6,72,1,-10,-4,-28,2,91,2,0,0,15,3,-4,0,0,0,-15,7,21,0,0,0,4,0,8,0,0,1,0,2,19,0,-1,0,-3,1,-8,0,0,0,13,3,-4,0,-1,-1,7,-3,-5,up
-33,151,33,374,-280,2291,-25,41,16,312,-146,1536,-29,0,4,217,-58,1196,-27,-16,0,140,-7,941,-21,-22,-2,256,22,1023,-17,-67,-13,154,97,335,-9,-88,0,217,62,-2,-17,-105,-4,190,-55,-482,-13,-101,-11,-292,-41,-979,-12,-53,10,-316,-54,-863,-17,-29,5,-403,-110,-999,-14,18,-6,-596,-66,-1092,-1,66,-4,-430,105,-969,5,88,9,91,160,-600,10,68,-10,-99,192,-258,23,69,-2,9,243,-23,21,63,4,144,181,31,30,52,11,7,64,219,26,42,8,36,-71,425,20,19,5,115,-126,519,16,9,7,182,-159,444,11,-6,-2,96,-118,401,5,-12,-3,113,-79,331,1,-17,-5,38,-49,271,1,-11,-3,33,-40,133,0,-11,-3,-26,-13,106,0,-3,-1,4,3,15,0,-2,0,-22,0,0,1,1,0,10,6,-15,1,0,1,-2,5,-27,up
-113,-116,8,1316,-37,3494,-61,-99,2,543,-16,1807,-40,-89,3,559,-4,976,-38,-149,4,242,-93,303,-32,-102,-7,-24,-20,535,-15,-43,1,-254,40,-809,-15,-34,2,-336,1,-888,-13,1,1,-430,40,-1013,-3,68,-1,-279,155,-1078,2,69,12,-160,129,-485,15,46,3,-254,79,-324,24,71,4,-104,99,-128,25,63,0,14,45,-147,29,62,3,-41,-10,205,27,47,-4,121,-30,226,25,30,-2,149,-83,431,18,17,-4,212,-64,313,15,-4,-1,50,-77,485,7,-2,-3,136,-73,352,5,-9,0,71,-81,380,1,-8,-3,120,-40,204,0,-15,-3,25,-34,197,0,-8,-2,37,-5,83,0,-9,-2,5,11,33,0,-5,-1,0,1,-31,0,0,0,-21,10,-27,-1,1,0,-10,7,-26,-1,2,0,8,4,-23,0,1,0,-1,-11,-6,0,1,0,2,2,3,up
-123,-114,-7,1123,-49,4046,-57,-113,-4,521,36,1994,-35,-124,6,504,22,972,-33,-131,6,165,-78,314,-36,-96,-6,-24,-47,652,-15,-52,2,-277,7,-940,-18,-15,0,-398,-21,-1095,-17,22,-1,-391,35,-1036,-9,60,-2,-260,145,-1103,5,67,7,-170,175,-516,14,60,8,-117,155,-213,22,62,10,41,136,-198,25,58,3,-114,55,55,28,53,5,74,-22,207,27,44,3,108,-75,335,23,27,-5,110,-139,390,16,7,-5,113,-111,532,12,-1,-2,185,-105,308,7,-7,-4,51,-65,439,3,-15,-2,70,-56,247,1,-13,-1,61,-11,159,1,-10,-2,22,-16,102,0,-7,-1,7,5,30,0,-2,0,-13,2,4,0,0,0,4,-2,-15,0,2,0,-7,-5,-10,0,2,0,5,-6,6,0,2,1,15,-8,-8,0,0,0,15,-4,-1,0,-2,0,15,1,22,up
-100,-121,0,1702,-175,3925,-49,-103,-3,846,-79,1818,-32,-113,-1,454,-76,928,-38,-133,2,256,-61,192,-30,-95,-2,-86,-42,615,-16,-55,1,-379,62,-1142,-16,-19,1,-541,62,-1062,-14,25,2,-404,122,-1249,2,78,4,-370,166,-981,16,89,5,-215,186,-546,26,88,0,-192,125,-57,29,85,9,128,63,78,27,51,0,0,8,318,29,41,-1,126,-60,458,13,15,0,227,-121,532,9,-1,2,213,-134,512,4,-21,-7,49,-77,467,5,-4,2,127,-86,239,-2,-12,-2,34,-56,313,0,-9,0,73,-29,70,0,-8,-2,31,-25,56,0,-4,-1,0,-16,3,0,-3,-1,8,2,-20,0,-1,-1,-7,0,0,-1,1,0,12,9,-35,-1,2,0,-27,9,33,0,1,0,25,1,-27,-1,-1,0,-21,-2,43,0,0,0,10,0,-25,0,-1,0,-28,0,16,up
-113,-120,10,1416,-150,3401,-61,-99,-3,646,-72,1686,-40,-103,-2,438,-46,961,-36,-111,1,248,-45,470,-28,-100,0,49,-30,691,-12,-52,-1,-347,32,-830,-11,-39,1,-360,27,-959,-10,4,-1,-432,18,-882,-4,38,0,-354,49,-1070,-4,63,0,-274,73,-702,9,57,3,-110,63,-458,17,77,2,-48,80,-227,22,63,-1,-31,111,-105,26,64,0,88,59,148,34,64,2,157,31,219,24,33,-5,112,-32,393,20,18,-1,144,-52,599,12,0,3,189,-100,425,9,-10,-2,89,-72,458,0,-24,-4,78,-76,367,2,-13,-1,80,-31,215,0,-18,-5,9,-23,129,2,-7,-1,24,0,3,0,-3,-1,-27,-5,17,0,-1,0,5,1,-7,0,0,0,-20,0,-27,0,2,0,1,-2,-5,0,0,0,-10,1,0,0,0,0,12,0,-11,0,0,0,-16,3,0,up
-114,-116,6,1173,-43,3688,-60,-99,7,709,20,1667,-45,-99,3,281,4,949,-38,-96,6,44,-3,544,-31,-88,9,47,-55,927,-11,-66,1,-265,-40,-919,-15,-32,5,-291,-29,-1005,-10,0,4,-197,-17,-876,-5,25,-1,-103,26,-999,-1,49,-5,-192,130,-901,7,63,4,-139,154,-484,20,73,0,-160,124,-229,24,65,-2,-164,95,-2,30,61,1,-48,33,135,32,52,-1,40,-29,232,26,40,-2,124,-74,413,17,11,-3,111,-91,555,12,4,1,196,-71,368,4,-4,-2,116,-57,402,-1,-11,-1,116,-52,334,0,-14,-3,48,-34,255,2,-12,-4,63,-16,100,1,-9,-3,-1,-10,69,1,-4,-1,5,-2,16,0,-1,0,-7,1,0,0,1,0,4,2,-21,-1,0,1,-8,1,-3,0,0,0,15,0,5,0,-1,0,-3,0,-8,0,0,0,9,0,-14,up
-128,-109,9,975,-25,3345,-67,-92,-2,481,-12,1573,-51,-89,1,310,15,938,-39,-90,2,252,0,516,-34,-92,4,187,-38,841,-10,-72,-4,-241,-1,-801,-13,-34,6,-242,12,-875,-13,-12,3,-228,-11,-858,-11,19,0,-303,24,-869,-4,48,-1,-315,80,-775,1,61,5,-80,84,-475,16,58,-1,-11,83,-319,24,53,-3,-111,131,-50,28,54,1,-51,99,21,33,54,2,12,67,131,29,35,0,2,14,112,26,27,4,11,-39,438,19,20,2,53,-107,367,16,7,0,151,-109,365,5,-4,-3,99,-107,374,6,-2,-1,117,-97,284,-1,-15,-7,43,-54,300,0,-10,-2,97,-23,121,0,-9,-3,-6,-15,89,0,-6,-1,15,3,10,0,-2,-1,-17,8,10,0,0,0,4,3,-22,0,1,1,4,2,-7,0,0,0,-2,-1,-10,0,1,0,-3,-4,21,up
-111,-115,9,1061,-234,3512,-61,-89,3,720,-114,1604,-46,-91,-1,360,-78,974,-37,-96,4,331,-58,461,-34,-100,-2,155,-46,781,-17,-63,-7,-371,49,-945,-19,-36,0,-400,65,-862,-12,-3,0,-405,54,-916,-9,27,-3,-450,91,-1003,0,62,5,-368,108,-730,10,66,7,-11,89,-450,30,70,-1,-95,85,-248,31,61,1,4,100,-116,44,79,1,104,53,95,34,50,-6,99,-5,249,31,40,1,124,-58,444,12,10,1,159,-98,484,8,5,0,177,-106,522,-5,-25,-2,67,-109,480,1,-10,1,133,-64,350,-1,-22,-7,48,-40,238,1,-10,-5,56,-16,89,0,-11,-4,1,7,48,0,-5,-1,16,11,-12,-1,-2,0,-38,9,-13,-1,2,2,6,9,-47,-1,0,1,-17,12,8,0,2,1,16,-6,-42,0,0,0,-10,0,14,0,0,0,15,-3,-2,up
-123,-114,2,962,-58,3247,-67,-88,2,568,13,1466,-50,-81,0,272,8,890,-41,-76,6,155,-10,563,-36,-80,8,161,-37,977,-13,-71,3,-232,-43,-621,-14,-44,4,-261,-25,-777,-11,-24,3,-179,-11,-811,-8,2,-3,-231,23,-852,0,33,-6,-260,90,-767,3,56,0,-97,134,-710,11,54,0,-127,109,-445,18,60,1,-146,93,-151,24,62,2,-31,69,-125,26,58,0,-46,35,106,31,61,3,100,-43,288,21,36,-2,73,-63,432,16,21,2,146,-89,410,10,-4,-2,95,-71,425,7,-9,0,139,-80,283,2,-21,-7,18,-30,357,6,-7,-1,85,-21,98,5,-4,-6,17,6,77,3,3,0,42,-8,57,1,-1,0,7,-8,102,0,-2,1,31,-3,66,0,-5,0,5,-5,30,0,-5,0,-3,-4,16,0,-3,-2,4,-6,-4,0,0,0,-1,0,-17,up
-115,-109,-4,1014,-100,3467,-61,-77,-5,739,21,1656,-42,-102,-6,400,3,1022,-34,-124,7,178,-57,463,-24,-101,1,-7,-58,675,-11,-53,4,-302,-5,-998,-11,-37,7,-366,-22,-949,-11,9,3,-354,-1,-987,-5,57,-6,-272,93,-1131,-3,76,0,-126,147,-705,14,63,-1,-54,123,-370,22,73,-3,-129,113,-38,30,62,6,36,73,42,32,53,0,-18,29,207,33,43,0,108,-38,331,22,28,-1,71,-78,571,15,5,0,220,-82,409,6,-3,-3,61,-73,516,0,-8,0,165,-85,335,-5,-19,-3,26,-53,391,-1,-18,-2,94,-15,96,1,-11,-2,-18,-20,105,0,-9,-2,23,0,-24,1,-1,0,-16,13,-20,0,0,0,-4,0,-54,-1,2,0,-12,-8,-4,-1,0,0,1,3,-12,-1,3,0,-7,2,-21,-1,0,0,-6,-3,11,0,0,0,10,4,6,up
-99,-121,8,1312,-113,3517,-57,-93,2,624,-55,1699,-41,-109,3,288,-42,976,-38,-124,8,184,-55,383,-27,-96,3,-59,-32,651,-16,-46,5,-346,13,-940,-14,-31,3,-367,-2,-926,-13,14,0,-318,9,-989,-7,56,-1,-275,68,-1004,-5,70,2,-90,74,-593,10,59,-2,-68,74,-256,16,67,-1,-76,75,-37,23,45,-1,44,79,45,30,54,0,24,20,124,24,27,-7,48,7,234,24,28,0,107,-35,411,15,11,-3,128,-33,275,11,18,1,97,-53,419,2,-9,-4,64,-45,361,5,0,3,119,-56,279,-1,-18,-4,38,-27,278,2,-10,0,64,-20,106,2,-12,-4,3,-7,75,2,-4,-1,31,-5,-19,0,-2,-2,-27,4,-5,0,0,0,3,-5,-14,-1,0,0,-12,5,-25,-2,0,1,-5,-4,-3,-1,1,0,-2,6,-13,0,0,0,5,4,1,up
-111,-114,21,1215,-64,3182,-53,-81,2,559,-18,1590,-40,-78,4,383,-1,948,-32,-99,7,233,-44,518,-31,-100,3,67,-37,726,-10,-60,-2,-358,1,-781,-16,-36,6,-276,13,-893,-13,-8,1,-350,-17,-794,-10,31,0,-330,35,-888,-3,61,2,-218,69,-738,3,59,3,-25,71,-385,16,56,-5,-127,73,-146,23,58,2,16,97,-72,25,51,-3,-10,72,98,27,49,1,98,38,127,22,34,1,48,-22,309,15,16,4,133,-60,260,11,3,-2,73,-80,338,6,-1,0,116,-78,204,5,-4,-6,46,-86,309,5,-7,-5,60,-50,125,6,0,-3,41,-32,126,4,-7,-4,0,-1,136,7,0,0,48,12,78,4,-5,-1,-2,24,109,3,0,0,40,22,39,1,-2,-2,-10,19,67,0,1,-1,27,19,15,0,-3,-3,-31,17,44,0,-1,0,1,7,11,up
-95,-286,-19,1385,-83,3697,-56,-251,12,699,-56,1155,-41,-162,7,373,-53,0,-40,-101,1,-283,-82,-289,-36,-75,0,-96,-40,617,-17,-1,6,-443,-49,-1012,-15,47,-1,-392,-14,-1253,-10,56,-2,-387,44,-645,2,58,5,135,106,-516,14,60,0,-45,140,-163,27,64,0,-54,138,-155,32,56,-3,-62,88,137,36,53,-2,46,15,87,32,38,-8,-8,-32,324,22,36,0,63,-112,494,6,9,-1,199,-85,507,2,7,0,179,-72,426,-3,-10,-1,134,-48,425,-1,-16,-1,131,-30,329,0,-23,-4,82,-9,207,2,-17,-4,30,-2,64,0,-10,-3,-13,1,-28,0,-1,-1,-16,5,-34,-3,4,0,-27,4,-41,-3,3,0,7,7,-31,-1,4,2,1,5,-13,0,0,0,17,6,-22,0,0,1,3,2,1,1,-1,0,14,11,0,1,0,0,-7,-8,-10,up
-106,-119,20,1339,216,3209,-55,-112,12,547,115,1461,-46,-114,16,138,37,738,-42,-109,17,124,-7,189,-34,-82,10,-21,-9,553,-17,-41,7,-300,-51,-891,-14,-7,5,-287,-56,-856,-6,26,0,-207,-14,-910,5,61,-3,-241,24,-754,12,61,-5,-171,54,-433,23,64,0,-34,43,-195,28,44,-6,-84,67,-35,32,53,-3,85,28,-3,26,24,-7,11,40,155,31,42,1,177,-15,99,20,16,-7,-74,-16,515,10,27,4,159,-55,333,4,-6,0,20,-46,538,5,2,1,170,-61,238,-4,-26,-5,10,-26,501,0,-18,0,155,-3,105,1,-22,-7,-19,7,58,1,-4,-1,27,15,-77,-2,-1,-1,-51,8,-25,-2,6,2,2,-1,-60,-3,4,0,-26,-10,3,-1,3,1,18,0,-18,0,-1,0,-16,-3,19,1,0,0,19,0,-16,0,-2,0,-16,7,5,up
-120,-109,18,1220,-115,3619,-56,-84,11,786,5,1622,-45,-85,2,330,-30,1010,-35,-97,8,292,-31,500,-30,-85,4,124,-55,898,-12,-54,-1,-263,-13,-917,-18,-35,-1,-322,-22,-767,-15,-7,4,-284,-14,-845,-12,24,-3,-356,17,-848,-4,42,-1,-297,71,-731,3,40,0,-151,79,-456,16,59,0,-78,74,-292,27,45,-6,-153,93,-191,28,65,-4,2,84,-93,31,50,-1,-16,9,77,32,52,-7,143,-1,144,23,26,-3,-8,-44,495,11,31,1,269,-56,452,9,-3,0,106,-76,492,1,0,-2,245,-30,325,0,-15,0,52,-45,461,0,-16,-3,125,-16,155,3,-18,-4,-22,-7,110,2,-9,-1,41,1,-12,1,-8,-2,-53,4,-18,0,3,1,0,1,-59,-1,1,0,-23,9,2,-1,4,1,25,-3,-39,0,0,0,-15,-7,22,0,2,0,15,-6,-17,up
-104,-126,15,1729,12,3450,-53,-119,3,617,7,1669,-40,-103,6,265,26,1011,-29,-111,11,337,-15,471,-26,-97,2,82,-40,818,-8,-65,-1,-403,-43,-849,-12,-36,4,-264,-20,-866,-7,-6,1,-289,-45,-1022,-13,28,-5,-394,12,-900,-5,49,1,-244,77,-862,-3,49,4,-156,124,-536,13,65,0,-162,115,-311,18,59,-3,-109,129,-219,35,63,-4,-25,126,-86,34,71,-2,-38,51,180,36,60,-3,111,-19,284,24,45,0,106,-63,538,14,22,0,222,-75,510,2,7,3,144,-134,647,-2,-21,-1,222,-86,482,0,-20,-2,123,-64,360,0,-30,-7,77,-31,234,2,-14,-2,17,-21,61,2,-11,-4,-1,10,-21,0,0,-1,-13,-2,-28,-2,0,0,-29,3,-40,-2,4,1,-3,-4,-41,-1,1,0,-6,2,-6,0,2,0,12,-1,6,0,-1,0,-20,7,-15,up
-116,-106,22,1173,77,3423,-61,-80,10,592,26,1687,-44,-84,6,386,-3,1044,-32,-97,9,289,-39,596,-31,-105,8,147,-48,869,-5,-75,0,-272,-55,-800,-10,-43,2,-234,0,-915,-12,-14,4,-328,5,-897,-13,21,0,-360,57,-941,-5,59,0,-289,80,-855,-5,61,3,-126,72,-523,9,53,-3,-113,49,-276,21,61,-1,-66,28,-137,26,49,-8,5,26,-43,33,61,0,-24,1,113,32,42,-8,83,14,107,28,44,0,35,-29,453,14,20,-3,121,-13,380,9,21,6,129,-45,558,0,-11,-4,180,-30,330,1,-5,2,109,-51,409,-2,-23,-3,91,-41,316,2,-16,-2,74,-24,123,2,-14,-6,7,-14,51,2,-4,0,9,-5,26,-1,-2,0,-16,1,2,-2,1,0,-11,6,-11,-2,0,0,-26,3,10,-3,0,1,13,7,-12,-2,-1,0,-6,-7,-24,up
-86,-130,8,1579,-2,3421,-45,-119,-1,656,-18,1599,-33,-121,3,166,15,910,-29,-119,14,204,-10,314,-21,-109,2,4,-25,618,-12,-53,4,-424,-30,-963,-17,-26,6,-388,-20,-892,-15,15,4,-219,-24,-1008,-9,44,-6,-297,41,-989,-5,75,2,-207,90,-605,9,57,-2,-73,124,-376,24,69,-4,-53,138,-172,34,68,-3,-56,114,-69,38,65,-4,-88,56,182,31,57,-1,88,5,276,20,41,0,77,-48,511,11,22,3,185,-84,462,1,-3,0,165,-85,588,-1,-12,1,243,-85,409,0,-25,-5,95,-66,335,4,-20,-5,104,-35,143,3,-17,-5,-21,-12,99,3,-5,-3,10,-2,-23,0,1,-1,-32,2,-9,0,4,0,10,4,-8,-1,1,0,-11,-9,21,-1,1,0,25,-9,-3,-1,0,0,-14,-3,16,0,-1,0,19,-6,16,-1,0,0,0,-2,11,up
-104,-114,18,1635,80,3428,-54,-104,3,774,29,1626,-39,-95,5,354,17,1011,-29,-101,10,246,-11,562,-30,-101,7,170,-30,881,-7,-82,1,-396,-64,-832,-11,-42,4,-387,-43,-870,-12,-13,5,-359,-33,-897,-11,19,0,-315,-2,-953,2,53,-6,-380,46,-895,-1,68,4,-97,115,-596,9,67,3,-126,108,-309,18,61,-4,-69,110,-236,25,74,-2,-80,74,19,23,71,5,90,47,165,23,58,-4,64,-30,466,14,29,-4,193,-47,495,11,18,1,202,-70,535,2,-9,-1,199,-66,502,-1,-22,-2,118,-61,455,1,-22,-2,114,-39,177,3,-16,-3,4,-40,120,2,-10,-3,24,-11,37,2,-4,-2,-10,5,-5,1,-1,-1,3,-4,-32,0,0,-1,-25,6,-4,0,3,0,5,17,-34,0,1,0,-13,-8,25,0,1,0,20,-6,-25,0,0,0,-3,0,21,up
-92,-139,7,1375,176,3411,-44,-101,4,715,88,1602,-30,-107,8,240,25,964,-26,-105,11,201,22,478,-23,-101,6,47,-13,800,-5,-60,6,-284,-63,-915,-11,-40,3,-324,-59,-934,-10,0,1,-228,-36,-1000,-8,32,-6,-279,0,-958,-3,60,-2,-276,74,-842,4,61,-5,-227,100,-444,19,86,1,-102,106,-204,22,64,-5,-252,78,20,33,76,0,111,40,197,25,43,-8,6,-13,341,22,49,1,247,-39,333,8,2,-5,60,-53,644,5,14,5,383,-34,272,-2,-21,-2,6,-61,577,4,0,5,243,-52,156,1,-24,-7,-12,-30,296,5,-8,-2,97,-25,51,3,-17,-8,-54,-18,74,2,-1,-1,7,6,-13,-1,-3,-1,-23,4,4,-1,3,2,16,1,-36,-2,0,0,-15,-2,13,0,3,1,16,2,-24,0,-2,-1,-8,-1,13,1,0,0,-11,5,-17,up
-96,-127,15,1479,-42,3476,-53,-97,4,665,-25,1656,-38,-93,2,293,0,1025,-32,-99,11,32,-32,605,-26,-94,10,167,-34,842,-9,-69,0,-317,-27,-916,-13,-37,5,-298,-10,-966,-14,-5,4,-266,-23,-829,-9,29,-2,-131,22,-995,-8,58,-5,-278,55,-832,-2,76,4,-124,61,-338,7,61,-2,-85,71,-103,16,56,-1,-31,56,5,17,46,-3,-17,45,63,23,36,-1,42,9,169,25,27,-4,43,0,166,20,20,-5,9,-22,211,17,14,-4,31,-19,319,17,16,-4,109,-30,212,10,13,-4,56,-28,318,4,-2,-5,127,-26,351,5,-3,-1,130,-30,220,4,-9,-3,127,-18,186,2,-12,-1,47,-11,155,3,-14,-2,35,-1,83,2,-5,-1,-3,-3,2,0,-2,0,-3,6,-16,0,1,0,-11,6,-4,-2,0,0,-19,-2,-5,-2,1,1,0,-3,-11,up
-97,-127,12,1187,93,3612,-40,-95,14,731,8,1704,-32,-108,4,286,-7,1042,-26,-115,14,199,-37,462,-22,-93,7,166,-33,781,-8,-66,0,-368,-46,-973,-15,-40,0,-430,-38,-902,-13,4,4,-315,-21,-1049,-11,40,-4,-313,28,-1011,-8,57,0,-352,61,-782,2,70,1,-31,89,-410,20,64,-4,-68,102,-235,35,86,-5,-12,83,29,24,57,-7,26,50,146,24,57,0,67,5,372,18,34,-1,120,-25,376,3,23,4,137,-58,490,-3,-22,1,169,-44,414,12,0,0,70,-51,347,12,-18,-7,118,-40,271,12,-11,-4,29,-41,217,10,-10,-6,68,-6,49,3,-2,-1,-16,-6,136,0,-6,0,61,12,24,-1,-2,0,-8,11,61,0,-2,0,14,5,-18,0,0,0,-6,-6,12,0,0,-1,4,-4,-6,-1,1,0,-11,-8,18,-2,0,0,9,-1,-1,up
-109,-112,35,1488,-24,3639,-46,-83,10,796,-11,1829,-30,-105,5,442,-18,1117,-24,-128,9,412,-57,465,-17,-94,3,178,-42,699,-4,-61,-5,-455,-32,-917,-14,-44,0,-463,-15,-910,-17,1,5,-421,-21,-1056,-14,46,-3,-518,33,-1120,-15,54,2,-420,85,-665,-3,52,7,-24,96,-519,11,71,1,2,93,-211,20,55,-7,-35,104,-152,30,69,-2,8,81,111,33,59,-2,81,27,179,29,55,-6,118,-34,483,18,20,-2,59,-66,609,10,16,2,194,-71,535,1,-15,-2,150,-81,516,-4,-22,-3,158,-75,349,-1,-29,-4,56,-29,280,2,-16,-3,81,0,-7,3,-10,-4,-16,1,3,0,3,0,29,12,-58,0,1,-1,-7,11,-11,0,5,1,9,3,-27,0,0,-1,-13,-2,18,0,0,0,16,2,27,1,-1,0,-10,1,15,1,0,0,8,-5,0,up
-95,-132,9,1669,153,3691,-44,-119,6,668,29,1772,-31,-116,7,268,24,1024,-25,-127,13,243,-16,379,-16,-101,5,-4,-35,690,-6,-54,3,-419,-66,-1012,-14,-23,5,-345,-33,-956,-11,11,4,-295,-40,-1087,-13,53,-5,-384,22,-1016,-15,72,5,-186,60,-658,-2,59,0,-70,104,-297,18,69,-1,-128,62,-99,17,60,-6,64,106,4,26,53,-2,15,54,219,28,40,-6,103,36,246,25,34,-1,86,-21,401,13,14,-3,144,-18,355,10,9,2,44,-75,525,5,-2,0,166,-67,326,3,-10,-1,88,-64,300,3,-12,-1,64,-54,233,2,-12,-1,78,-27,145,3,-12,-5,24,-13,80,2,-3,-3,5,1,0,1,-3,-1,-1,8,-5,0,-1,0,7,12,-14,0,-1,0,-28,7,7,0,1,1,8,4,-32,0,0,0,-6,2,-18,0,2,0,-2,-7,-6,up
-42,150,29,381,-20,1832,-25,73,12,533,-27,1405,-21,19,4,324,-19,1246,-17,0,3,325,23,1039,-12,-21,0,377,18,990,-2,-79,-6,238,-3,425,-3,-99,-4,-15,1,191,-9,-124,5,87,-18,-382,-2,-116,-3,-296,-58,-964,-14,-52,4,-480,-47,-1084,-15,-20,5,-436,-37,-1039,-23,16,3,-354,-15,-1180,-10,66,-7,-518,53,-1120,-16,86,7,-219,113,-530,0,59,4,-64,93,-363,13,75,0,-79,81,-82,27,58,-4,35,96,63,33,60,0,35,17,258,34,48,-11,208,-31,273,28,28,-9,72,-45,567,11,7,-3,202,-8,462,7,0,2,104,-57,535,-1,-9,-1,221,-39,289,0,-17,2,49,-34,416,1,-13,-1,111,-22,143,4,-16,-3,1,-28,94,5,-4,-2,29,-15,8,1,-6,-1,-24,1,5,0,0,0,10,-5,-15,-1,-1,0,-22,3,-30,up
-41,148,21,724,-87,2307,-28,42,11,458,-40,1555,-22,9,7,416,-13,1210,-22,-19,5,366,5,948,-21,-36,2,301,9,1032,-13,-82,-2,101,33,257,-11,-106,4,-44,4,-113,-12,-89,4,-165,-28,-581,-11,-76,0,-387,-41,-975,-16,-36,8,-315,-39,-999,-13,-6,7,-352,-60,-1039,-11,41,-2,-299,-14,-1037,-7,52,0,-261,39,-859,1,74,1,-31,71,-452,19,69,-4,-74,76,-167,23,64,-7,-22,101,-75,26,58,-5,-7,93,219,31,54,-2,114,45,268,23,31,-2,8,-8,455,15,18,0,126,-27,517,7,-1,2,126,-44,478,5,-6,2,198,-59,351,-1,-21,-4,48,-52,398,3,-13,-2,139,-26,123,2,-16,-4,-40,-16,111,2,-3,-2,17,-11,-3,0,-4,-2,-31,-7,35,0,0,0,27,2,-31,0,0,0,-19,2,0,0,2,0,21,-3,-29,up
-45,150,21,291,-18,1698,-34,56,13,441,-9,1273,-26,25,6,330,13,1110,-22,-1,4,335,27,948,-19,-20,3,302,36,946,-6,-69,-2,239,40,413,-1,-76,-2,48,12,260,0,-112,3,-46,-20,-77,-6,-101,2,-220,-54,-550,-2,-77,1,-489,-112,-1020,-16,-42,3,-422,-109,-980,-16,-10,4,-447,-115,-1016,-18,43,-1,-320,-69,-1045,-7,60,-1,-210,5,-1039,-7,71,0,16,95,-487,6,63,-2,-40,121,-237,15,68,-2,112,131,-165,25,62,-6,8,124,74,26,58,-4,55,61,244,26,45,-1,60,-6,449,20,29,-1,136,-38,442,13,4,-4,38,-22,595,7,-4,0,163,-31,444,3,-13,0,101,-33,404,2,-18,-3,112,-5,234,4,-11,-1,21,-8,175,3,-10,-1,69,6,35,3,-5,0,-11,-4,23,1,-4,0,-6,2,-5,0,0,0,-20,-3,-18,up
-93,-143,6,1727,110,3864,-46,-152,7,786,58,1715,-33,-177,18,329,-30,734,-18,-113,11,150,-25,-20,-28,-73,5,-83,-28,603,-14,-51,3,-488,-74,-1013,-11,3,2,-530,-104,-960,-13,57,-3,-354,-14,-1257,-17,53,-1,-368,16,-680,1,60,0,-6,61,-439,15,66,-4,-37,99,-137,19,67,-6,57,124,-107,31,64,-3,80,64,250,33,50,-6,137,42,226,27,29,-4,71,-6,478,16,25,2,127,-26,504,10,0,3,193,-30,423,3,-12,-2,71,-35,448,0,-13,0,133,-42,301,1,-18,-2,26,-34,231,3,-14,-4,57,-23,71,0,-11,-4,-18,-12,80,0,-5,-1,1,1,0,-1,-1,0,-20,7,-23,-1,1,0,4,2,-28,0,1,1,-4,-2,-3,0,0,1,-9,-5,-2,0,0,0,8,1,-33,0,0,-1,6,-11,-13,0,0,-1,-10,2,-9,up
-23,153,13,502,-65,1503,-23,49,8,333,-66,1250,-23,25,6,361,5,1020,-22,-12,5,282,23,822,-18,-20,4,253,30,744,-16,-62,0,123,42,426,-16,-62,2,47,51,191,-10,-89,7,-50,4,-60,-11,-96,8,-132,-60,-498,-10,-84,0,-313,-60,-869,-15,-42,5,-268,-38,-929,-11,-19,3,-287,-42,-917,-7,25,-3,-290,-21,-959,-2,68,-5,-257,72,-998,4,87,5,-56,79,-488,16,65,-2,-30,84,-150,26,73,2,-56,71,-5,24,52,-4,14,90,141,30,50,1,60,3,222,22,23,-7,36,7,292,22,24,0,26,-49,516,10,-6,-7,78,-27,366,9,6,0,83,-73,379,2,-8,-5,74,-29,325,4,-2,0,101,-52,267,0,-16,-5,54,-25,213,2,-5,-3,104,-29,63,1,-11,-3,34,-5,74,1,-4,-1,42,-8,-37,0,-5,-2,-26,0,9,up
-111,-118,30,1349,161,3306,-57,-98,16,663,58,1531,-39,-95,14,230,32,920,-35,-112,22,173,-39,374,-28,-85,12,65,-42,669,-13,-50,5,-281,-73,-938,-19,-36,4,-325,-54,-835,-12,4,2,-271,-53,-938,-7,45,-11,-314,37,-917,-5,59,-2,-242,71,-617,10,63,0,-47,71,-346,24,72,-5,-132,60,-40,24,62,-3,-3,66,29,24,43,-2,33,30,182,29,38,-3,110,4,60,24,16,-8,-1,4,332,19,18,0,119,-24,268,13,3,-3,104,-28,313,11,16,0,129,-47,277,3,-4,-3,78,-37,328,2,0,0,70,-40,312,0,-14,-4,100,-12,235,1,-13,-3,48,-8,169,1,-15,-3,25,5,74,1,-7,-1,-9,-1,-1,0,-4,0,1,5,-9,0,0,0,-22,4,-39,0,1,1,-2,3,-35,-1,2,1,-6,0,-21,0,1,0,9,0,-10,up
-88,-134,19,1440,-19,3938,-47,-115,5,788,-27,1771,-39,-145,11,340,-60,866,-38,-125,6,235,-28,149,-32,-100,-2,-105,-17,618,-23,-50,1,-412,7,-1076,-17,-13,3,-521,-3,-976,-12,43,-1,-388,51,-1108,-2,74,1,-342,63,-917,8,88,9,-80,71,-360,21,77,-2,-56,62,-107,25,64,-1,75,72,-11,31,49,-4,31,49,118,30,35,-6,86,18,287,22,27,-3,71,-19,343,16,13,0,172,-34,380,8,5,-1,91,-37,412,2,1,1,170,-53,348,0,-9,0,60,-58,376,1,-16,-3,136,-30,162,1,-13,-3,-8,-36,216,1,-10,-3,61,-14,29,1,-8,-2,-34,-5,44,0,0,0,30,3,-50,-1,0,0,-36,-4,26,0,0,0,33,0,-42,-1,-2,0,-30,-13,19,0,1,0,19,-5,-59,0,-1,-1,-32,-7,42,0,1,0,13,2,-46,up
-98,-119,19,1098,5,3671,-50,-99,9,556,38,1701,-40,-98,4,263,25,976,-34,-111,12,251,-21,400,-28,-88,4,23,-36,793,-15,-53,4,-315,-26,-940,-22,-30,6,-236,-42,-888,-13,3,5,-256,-31,-968,-8,43,-2,-357,30,-875,-4,60,4,-172,76,-640,7,55,0,-36,64,-339,19,63,-6,-157,71,-52,23,55,0,7,42,-28,28,54,-2,-2,3,130,27,38,-4,185,-7,142,22,26,-5,-56,-24,397,17,16,2,188,-36,259,10,4,-5,0,-15,384,3,1,-2,165,-16,189,2,-8,-4,-30,-34,505,4,-3,-2,184,-10,40,4,-13,-6,-13,0,230,3,-4,-1,89,-13,66,2,-11,-2,-6,6,53,1,0,0,-19,0,23,-1,-2,0,11,-3,-26,-1,3,1,-9,-13,13,-1,-1,0,18,1,-18,0,0,0,3,-9,22,0,0,0,25,0,-21,up
-30,160,25,216,179,577,-18,91,9,321,-10,1037,-13,69,2,363,-21,1201,-3,13,-5,386,-18,1205,-2,-22,1,354,-9,798,4,-86,-6,292,-51,774,-1,-168,3,83,-28,111,0,-183,-12,-208,-27,-797,-23,-86,1,-518,41,-1371,-22,-44,7,-646,-33,-1295,-29,12,5,-496,-2,-1325,-13,117,-7,-423,89,-1757,0,136,15,-151,113,-465,25,96,3,5,44,-70,25,83,-11,169,105,176,30,61,-1,61,27,568,18,26,3,144,-47,511,5,15,0,128,-65,646,-3,-19,0,177,-69,524,-1,-14,1,97,-70,383,0,-22,-5,65,-8,234,4,-10,-5,55,0,69,3,-9,-5,-12,-2,62,3,0,-1,13,-3,24,1,-1,0,8,6,28,1,2,1,27,-1,-9,0,-2,0,0,-14,45,0,-2,-1,14,-3,5,0,-1,-1,8,3,-16,0,0,0,-1,0,-3,up
-35,153,21,601,-52,2113,-30,63,12,418,0,1542,-23,21,8,373,27,1283,-19,-14,5,312,53,1000,-15,-33,2,313,45,983,-11,-87,-4,113,52,316,-6,-114,5,99,2,-76,-6,-106,1,-112,-61,-650,-11,-77,-2,-429,-90,-1055,-17,-40,9,-336,-84,-1001,-13,-2,6,-376,-72,-1145,-16,47,-5,-479,-1,-1065,-12,70,2,-217,80,-746,4,64,2,-5,77,-434,18,64,-12,-151,109,-120,26,68,-4,2,95,11,33,62,-1,126,50,216,29,40,-6,24,-15,393,19,40,1,156,-14,458,9,20,5,172,-55,480,2,-3,2,144,-55,497,-1,-17,-4,102,-44,416,0,-19,-1,55,-12,295,0,-17,-4,52,8,96,3,-14,-4,-5,-7,42,1,-2,-2,33,-7,-17,0,-3,0,-29,-11,11,-1,4,0,42,-5,-66,0,1,-2,-49,-18,31,0,3,0,18,-13,-9,up
-28,160,14,394,116,1612,-28,57,13,505,42,1327,-21,23,8,436,51,1158,-16,-13,7,491,56,930,-14,-37,4,367,24,835,-9,-96,3,177,-5,303,-8,-114,5,-40,-32,-165,-5,-99,1,-264,-54,-724,-9,-63,4,-446,-69,-979,-11,-23,2,-538,-77,-1043,-14,12,0,-490,-42,-1171,-6,59,1,-362,25,-1012,-1,62,0,-258,71,-639,9,68,-6,-59,99,-347,24,78,1,-50,90,-19,28,60,-5,175,103,125,29,52,-5,70,38,413,25,39,-5,248,-1,358,17,21,2,33,-64,721,5,-10,-1,234,-24,386,3,-6,3,38,-69,508,0,-19,-3,165,-36,254,-2,-19,-1,13,-35,298,-1,-18,-6,85,4,22,0,-11,-6,-23,3,44,0,-3,-2,30,18,-47,-1,-3,0,-50,10,9,-1,1,1,5,10,-54,-1,2,2,-23,-2,-20,-1,3,3,13,-4,-38,up
-31,155,5,633,-96,2115,-33,45,7,414,-28,1493,-24,21,3,422,29,1195,-21,-20,2,341,46,968,-18,-34,1,309,74,980,-10,-92,1,123,105,281,-5,-120,11,-98,19,-160,-3,-102,7,-242,-36,-648,-7,-58,10,-267,-100,-1032,-13,-38,6,-434,-157,-969,-13,8,5,-346,-155,-1067,-11,55,-8,-242,-33,-1143,-10,61,1,-180,47,-762,2,48,-10,-281,107,-345,19,71,-5,-89,161,-187,34,76,-7,-120,104,21,31,55,-6,25,62,192,35,54,-9,99,-7,377,27,40,-1,214,-41,477,13,18,2,185,-92,557,-3,-18,-1,214,-39,528,1,-4,0,174,-38,340,-3,-28,-4,72,-30,397,0,-15,-2,68,-12,180,3,-21,-6,24,13,40,2,-5,-1,-18,0,-36,0,-4,0,-19,2,-37,0,3,1,-29,14,-75,-1,3,2,-9,9,-21,0,5,1,-15,-1,-11,up
-105,-122,5,1742,252,3775,-44,-102,5,859,134,1792,-36,-117,7,317,56,1071,-32,-128,17,182,-9,441,-19,-101,11,12,-63,736,-7,-56,7,-358,-124,-1059,-17,-31,5,-467,-134,-983,-8,11,3,-362,-111,-1117,-7,55,-11,-377,-20,-1133,-8,72,-7,-264,73,-764,8,65,-7,-336,80,-297,21,83,-10,57,99,-198,23,63,-12,-149,64,128,31,65,-8,207,48,168,28,48,-10,112,-6,626,13,34,-2,367,1,374,6,1,3,81,-6,824,-1,0,1,383,20,301,-3,-18,2,52,-21,612,-5,-24,2,192,2,214,2,-26,-2,-12,-4,131,1,-16,-2,22,-6,-78,1,-6,0,-67,-13,-21,-1,2,1,4,-5,-118,-1,4,0,-44,-4,-22,-2,8,2,16,1,-76,-1,2,0,-28,-4,24,0,1,0,25,6,-16,0,-2,0,-15,7,39,0,0,1,13,-1,-9,up
-96,-126,38,1293,186,3086,-48,-91,18,788,86,1472,-33,-94,11,299,32,941,-28,-91,15,123,25,569,-23,-91,16,125,-29,888,-2,-67,3,-318,-85,-640,-5,-47,7,-369,-92,-747,-6,-21,8,-297,-94,-881,-5,11,-1,-235,-99,-929,-5,40,-6,-299,-23,-859,-3,59,0,-131,6,-619,3,72,-4,13,30,-442,7,52,-16,-200,93,-120,19,69,0,55,107,-73,25,47,-7,-192,46,190,26,46,-10,114,75,28,27,31,-10,-89,40,542,24,49,1,300,-2,216,10,6,-9,37,-14,729,5,11,0,380,19,278,0,-12,0,60,-32,545,-5,-19,2,159,-12,306,-2,-30,0,12,-14,215,0,-17,-1,46,-16,-17,0,-10,-1,-36,-19,-31,0,-1,-1,19,-4,-105,-1,0,-1,-69,-5,-47,-1,5,0,-8,1,-67,-1,3,0,-35,-1,-12,-1,2,0,18,0,-4,up
-83,-136,26,1563,213,3531,-49,-120,11,738,109,1688,-30,-121,13,315,47,939,-31,-129,16,97,-13,336,-20,-99,8,-55,-23,635,-11,-49,3,-375,-74,-902,-12,-19,7,-407,-104,-882,-13,18,3,-268,-75,-979,-6,56,-5,-257,11,-986,-8,66,5,-115,43,-532,6,58,-1,-187,70,-246,13,56,-9,-98,112,-190,23,71,-4,-97,79,49,24,44,-11,-9,62,15,36,50,-8,66,8,285,27,34,-11,169,0,304,21,33,1,176,-32,446,7,-11,-5,155,-8,498,8,9,8,204,-51,340,-7,-18,-3,113,-16,428,-2,-16,6,96,-30,255,0,-25,-2,29,-16,148,3,-8,0,27,-22,-32,1,-7,-3,-30,-14,16,2,1,0,-25,-19,-74,-1,1,0,-21,-10,-3,-2,4,1,-8,-3,-27,-2,1,0,-14,0,15,0,0,0,8,11,-19,0,0,0,7,10,2,up
-42,148,20,651,-23,2315,-35,57,13,516,-5,1610,-27,5,8,463,19,1278,-17,-23,2,398,38,995,-14,-40,2,302,36,1052,-4,-96,-2,107,41,265,-3,-126,6,114,-18,-265,-1,-120,-7,-335,-62,-876,-15,-64,3,-428,-55,-1102,-21,-25,6,-477,-66,-965,-22,11,5,-401,-45,-1170,-15,66,0,-487,49,-1098,-8,89,9,-185,102,-530,10,74,0,-41,60,-191,25,63,-7,-22,69,-62,27,67,-2,41,43,150,27,51,-8,59,2,309,19,36,-3,149,-33,309,13,14,-2,121,-1,428,7,9,1,162,-11,375,5,-9,-3,104,-24,359,4,-12,0,87,-23,280,6,-7,-1,89,-10,139,5,-5,-2,32,-33,141,3,-6,-3,28,-33,78,3,-3,-3,6,-17,26,1,-2,-3,13,-5,23,0,0,-1,-1,-2,34,1,-1,-1,-8,0,7,0,0,0,9,6,13,up
-45,152,-4,504,81,2900,-38,48,12,474,71,1957,-29,-13,6,451,108,1363,-18,-35,1,437,97,1002,-15,-50,-1,298,60,1135,-5,-126,8,182,-4,155,-7,-125,2,-160,-79,-543,-8,-78,1,-324,-101,-1044,-19,-58,5,-507,-121,-1018,-17,-7,12,-434,-147,-1041,-23,43,0,-337,-49,-1055,-12,68,2,-135,48,-1064,-6,58,0,-105,91,-276,10,83,6,103,60,-161,11,49,-10,-40,158,-36,26,51,-1,-52,83,164,24,39,-6,-19,46,252,25,35,0,88,-38,225,19,6,-9,-48,7,365,19,17,3,104,-52,282,9,5,-4,84,-30,343,9,1,0,95,-41,234,6,-8,-4,67,-13,245,4,-3,-1,77,-21,172,2,-10,-3,75,-19,89,3,-4,-1,5,-17,101,2,-3,-1,32,0,16,1,0,0,-6,-5,27,1,0,0,24,-2,-2,1,0,0,-10,2,21,up
-128,-98,24,946,28,2987,-68,-72,17,679,21,1428,-50,-82,8,350,12,902,-39,-66,9,172,13,636,-31,-91,13,137,-15,950,-9,-70,4,-165,-40,-512,-7,-59,0,-311,-34,-755,-8,-31,2,-279,-42,-731,-6,-9,2,-232,-47,-872,-6,37,-4,-229,8,-832,0,48,-2,-214,50,-729,7,62,-1,-106,71,-445,16,71,0,-112,56,-169,20,59,-10,-60,91,-150,28,58,-2,-2,32,107,29,42,-7,54,10,75,27,35,-4,61,-17,300,21,23,-6,106,-8,354,17,14,2,135,-36,357,8,6,-4,82,-29,440,1,4,3,143,-33,373,0,-7,0,103,-34,360,0,-14,-2,99,-18,213,-1,-15,-2,39,-18,150,0,-12,-1,27,6,31,2,-7,-2,6,11,-32,0,-2,0,-14,6,-22,0,0,0,-18,2,-49,1,3,1,-16,-2,-23,0,2,0,3,3,-1,up
-108,-110,18,1084,131,3311,-57,-93,10,569,72,1531,-42,-95,10,268,53,917,-34,-103,19,162,-16,422,-32,-91,10,-18,-49,756,-13,-57,6,-330,-63,-898,-14,-34,5,-300,-82,-868,-11,5,2,-274,-89,-939,-9,43,-7,-234,-21,-842,-1,61,-3,-148,26,-679,5,63,-1,85,43,-371,16,64,-5,-82,69,-87,20,52,-8,-99,102,47,24,54,-1,20,48,219,22,30,-4,35,38,187,20,26,-3,0,-4,302,11,8,0,89,-28,333,10,6,2,236,-53,195,8,-14,-9,20,-15,292,10,7,0,131,-15,135,6,-8,-3,-31,-3,222,6,2,-1,75,9,101,3,-5,-1,-39,-1,175,2,0,3,83,-5,79,0,-8,-2,-6,-4,138,1,-4,0,58,-5,0,1,-4,-1,-23,6,18,0,-2,0,17,3,-30,-1,0,0,-37,0,18,-1,1,1,2,-2,-30,up
-69,-167,-7,1492,-25,3653,-40,-127,-9,477,-19,1713,-38,-144,10,221,-11,784,-27,-122,10,227,-21,27,-30,-76,3,-107,-6,514,-20,-40,6,-416,-8,-950,-17,-2,9,-337,-31,-900,-9,36,0,-281,8,-1175,-7,63,-4,-416,46,-735,8,58,0,13,49,-416,21,72,-3,0,62,-141,24,51,-5,2,107,-94,34,66,-2,15,46,220,27,40,-4,193,4,179,22,28,0,-4,-21,401,14,10,2,151,-27,374,13,8,0,90,-60,405,1,-8,-1,153,-23,314,7,-2,2,23,-16,361,5,-6,-2,106,-26,109,3,-10,-2,-30,-21,254,1,-7,-1,62,-3,71,0,-10,-3,-21,-9,104,-1,-2,0,17,-2,9,-2,-6,-1,-22,7,8,0,2,2,-7,0,-53,-1,0,0,-5,3,-10,0,2,2,2,-14,-28,0,-1,0,-10,-14,-23,0,2,1,9,-3,2,up
-87,-128,37,1405,-339,3458,-54,-119,13,402,-138,1637,-42,-140,19,331,-50,594,-30,-85,6,124,-52,28,-30,-64,4,-64,-20,520,-17,-31,2,-385,52,-759,-11,-2,3,-268,22,-1066,-7,41,-5,-347,52,-985,-5,38,4,-336,87,-657,9,56,3,-102,82,-336,22,57,-4,-22,82,-187,29,64,-4,-38,56,-8,30,51,-5,102,19,249,28,35,-5,117,-24,261,22,17,-5,175,-42,373,14,1,0,65,-52,432,6,-10,0,170,-13,291,4,-8,0,-8,-33,335,1,-3,-2,125,-30,160,-3,-8,-2,-35,-26,225,-1,0,-3,57,-11,27,0,-6,-4,-11,4,115,2,-3,0,47,2,18,2,-6,0,2,20,14,3,-1,0,1,21,-24,1,-1,0,30,7,-37,-1,0,1,-24,-13,3,0,2,0,18,-10,-50,0,1,0,-16,-11,12,0,1,0,29,-21,-16,up
-113,-107,12,1171,-118,3194,-63,-123,10,493,-65,1414,-52,-143,16,194,-33,451,-33,-91,10,89,-15,-78,-34,-55,6,-38,-2,472,-14,-36,4,-366,0,-776,-8,8,3,-327,5,-984,0,52,-7,-331,49,-945,1,53,-1,-263,46,-541,15,42,-5,-106,83,-332,30,66,-4,14,97,-163,31,47,-7,-71,100,87,37,60,5,184,4,207,26,29,-8,91,7,377,19,32,4,158,-62,420,4,-8,-2,131,-52,590,3,-5,1,173,-74,234,-4,-30,-10,13,-34,397,0,-10,0,66,-44,120,0,-22,-6,0,-9,61,4,1,0,-32,-17,2,0,0,-1,35,2,-42,0,4,2,0,9,14,0,0,0,32,10,-25,0,1,0,-32,-3,20,0,-1,-1,27,6,14,0,-1,0,-29,-2,18,0,0,0,20,-2,-12,0,0,0,-5,-5,5,0,1,0,25,3,-9,up
-112,-127,-8,1322,-115,3266,-68,-169,-6,5,-9,1356,-50,-138,22,104,-28,230,-46,-100,2,-84,-36,-234,-41,-61,5,-90,-7,435,-17,-19,11,-416,-14,-750,-10,32,8,-120,-7,-1089,-1,60,-9,-282,33,-793,12,72,3,-46,67,-375,23,58,-5,-74,50,-54,29,55,-7,49,61,-54,26,33,-9,-108,57,208,25,37,0,211,6,110,20,13,-5,-5,-5,389,15,16,2,143,-32,224,7,-4,-3,77,-5,411,8,9,3,218,-48,159,4,-14,-5,1,-32,370,4,-4,-1,107,-35,116,1,-15,-5,7,-14,155,2,-5,-1,22,-25,62,0,-7,-2,-6,6,21,0,1,0,2,13,-1,-1,0,0,6,3,2,0,2,1,8,1,-1,0,-1,0,-1,7,-5,0,0,0,14,-3,16,0,0,0,2,-4,-5,0,0,0,-7,-13,3,0,-1,0,3,-9,-5,up
-83,-139,8,1410,11,3719,-51,-132,1,422,3,1589,-44,-136,14,236,-24,553,-35,-97,8,-23,-1,-52,-35,-62,8,-32,5,566,-24,-29,3,-414,4,-937,-17,12,9,-279,-1,-1038,-6,47,-2,-245,53,-997,2,63,0,-159,43,-603,18,58,-3,-151,44,-206,28,55,-4,-78,24,-95,31,49,-9,-25,50,-6,27,46,-5,-67,-5,217,26,33,-6,130,17,305,16,20,-5,126,-25,316,10,8,-2,193,-1,406,8,-4,0,141,-27,363,7,-11,-4,178,-13,254,1,-17,0,42,-40,330,2,-15,-1,72,-17,122,3,-6,-1,-3,-20,62,0,-4,-1,-3,-16,49,0,0,1,-24,-13,28,-1,-2,0,4,-10,-9,0,-1,0,-29,0,-7,0,0,0,7,-6,-14,0,0,0,-7,-4,-19,-1,0,0,6,0,-20,0,2,0,-4,-7,-15,0,2,0,2,0,-2,up
-115,-133,18,1216,40,3330,-63,-133,11,479,-2,1419,-49,-167,22,270,-43,364,-38,-89,12,20,-24,-145,-39,-69,9,-41,-5,442,-16,-33,7,-368,-32,-854,-12,12,5,-280,-2,-1117,-3,74,-5,-318,62,-868,5,65,-2,-149,62,-432,17,65,-3,-69,53,-94,22,64,-1,24,67,-11,27,41,-3,-84,21,237,22,31,-2,127,-18,299,13,5,-3,-14,-38,311,12,7,-2,114,-34,198,9,-5,-7,30,-34,266,8,7,-2,186,4,107,9,2,-4,0,-4,260,10,5,-2,166,13,104,6,-2,-1,0,-5,212,5,0,0,80,0,90,1,-9,-2,-12,-19,164,0,-10,0,39,-19,82,0,-5,0,-21,-19,16,0,-1,-1,6,-6,6,-1,0,-1,-23,-13,-10,-4,0,0,1,-1,0,-3,0,0,-8,10,-40,0,0,0,0,0,-13,0,0,0,-11,-8,2,up
-82,-143,21,1619,82,3791,-48,-116,9,478,2,1827,-36,-129,15,351,-5,816,-25,-107,12,201,-47,57,-27,-77,6,-139,-63,536,-19,-39,5,-462,-77,-979,-16,-3,6,-325,-54,-1074,-10,33,-5,-444,0,-1250,-5,71,-4,-425,45,-770,7,66,-4,62,118,-459,26,85,-6,27,102,-124,28,64,-12,34,136,110,30,71,2,135,17,434,18,28,-4,228,10,407,12,22,4,69,-35,586,2,-16,-2,133,-28,448,3,-12,3,107,-73,437,-1,-28,-8,108,-4,271,3,-13,0,34,-7,113,2,-12,-5,22,1,21,1,-1,0,-27,2,28,0,-1,0,-3,6,8,0,0,1,-8,4,-7,0,0,0,9,-3,9,0,0,0,-20,-15,-9,1,0,0,9,-12,-21,-1,0,-1,-10,-4,13,0,0,0,8,-5,-6,0,0,-1,-5,1,-1,0,1,-1,10,-2,-25,up
-47,-155,-1,1782,-175,4159,-23,-136,-5,450,-18,1958,-22,-175,17,440,-39,686,-15,-134,4,-35,-34,-154,-23,-72,11,-141,-13,495,-22,-32,9,-537,5,-1027,-21,8,10,-366,-23,-1215,-11,75,-6,-475,17,-1305,-3,100,1,-194,25,-598,9,67,-9,23,29,-223,29,79,-7,116,71,-47,32,58,-9,76,87,222,28,56,0,127,27,427,13,19,-1,179,27,567,10,14,3,80,-1,400,0,-15,0,61,-31,567,0,-11,1,90,-65,339,-2,-26,-4,93,-20,282,4,-12,-3,51,-14,85,5,-10,-5,40,4,-6,3,-1,0,5,4,-5,1,-1,0,13,10,-3,0,0,0,-6,7,12,0,0,0,-4,-5,-12,0,0,1,-8,-17,-2,0,0,-1,5,-12,13,0,0,0,9,0,-2,0,0,0,0,-2,-8,-1,0,-1,6,-3,5,0,0,-1,-7,-2,-4,clockwise
-76,87,-121,2,1217,152,-36,74,-54,301,1099,356,-22,71,-19,163,910,514,0,65,13,390,761,606,25,44,37,465,468,558,64,-3,73,568,-48,541,76,-40,72,501,-529,332,73,-78,45,574,-842,-53,50,-103,0,318,-1068,-364,3,-102,-50,163,-963,-893,-35,-69,-80,-93,-649,-1140,-69,-25,-102,-396,-254,-1263,-94,21,-95,-748,131,-1001,-84,69,-64,-856,602,-741,-64,93,-30,-1010,876,-129,-51,99,18,-867,947,192,-5,75,61,-604,761,585,38,44,93,-8,456,660,34,-6,79,223,23,773,46,-32,61,433,-337,424,37,-42,14,462,-464,326,8,-39,-5,408,-438,81,-13,-28,-30,127,-295,145,-10,-12,-26,29,-182,-64,-19,-4,-18,-14,-47,-12,-6,-3,-2,-45,-34,98,-2,0,-5,-14,9,23,1,-2,-1,-21,-5,35,3,0,0,-2,14,-34,2,0,0,-17,8,12,clockwise
-54,71,-145,694,671,-900,-65,60,-102,285,1078,-158,-26,83,-37,222,1140,296,6,66,20,483,894,603,46,53,42,572,475,423,78,3,73,577,123,755,96,-39,90,629,-397,541,89,-93,61,558,-874,152,57,-114,0,190,-1073,-251,-1,-119,-41,-89,-894,-897,-37,-76,-46,-225,-647,-1097,-65,-41,-73,-403,-390,-1255,-66,9,-66,-539,-94,-1096,-83,46,-89,-674,202,-895,-58,79,-41,-708,541,-371,-55,83,-45,-853,743,-105,-38,107,-11,-874,808,318,-28,87,32,-533,794,533,21,53,101,-99,626,850,23,2,76,15,95,718,35,-12,90,325,-305,486,39,-43,60,512,-449,335,21,-48,-4,418,-555,202,-4,-43,-31,196,-521,142,-16,-21,-40,210,-237,-151,-17,-14,-47,30,-66,-24,-11,-7,-28,29,-10,42,-4,-7,-2,-41,44,56,0,1,0,-3,53,-37,3,4,4,-3,24,-27,clockwise
-71,48,-130,361,515,-338,-73,53,-109,131,935,-43,-72,90,-71,10,1161,275,-6,69,2,501,1080,681,60,55,45,645,577,698,109,11,84,762,73,598,123,-41,91,788,-407,206,119,-100,62,824,-853,-33,59,-107,-4,311,-1096,-459,-28,-105,-54,17,-815,-1291,-79,-74,-73,-345,-421,-1338,-84,-22,-71,-559,-244,-1287,-72,16,-76,-935,-132,-1002,-55,65,-65,-1062,185,-502,-48,87,-58,-877,569,38,-24,103,-40,-988,720,344,-18,97,-2,-759,903,628,-2,84,65,-363,942,714,13,25,102,64,588,676,45,-11,103,-53,-69,667,35,-26,100,491,-233,212,22,-39,38,538,-559,85,10,-46,3,448,-696,175,-7,-32,-30,313,-584,145,-23,-24,-35,301,-324,-43,-23,-24,-46,46,-294,42,-10,-18,-15,-76,-113,181,-9,-7,-13,35,10,-10,-4,-4,-6,-18,15,3,-4,0,-1,-16,46,-62,clockwise
-103,44,-125,400,540,-577,-77,23,-93,-230,913,-62,-51,59,-65,-177,974,103,-2,66,-2,-3,890,292,36,53,18,345,580,243,72,38,68,505,305,631,94,2,81,699,-168,454,96,-50,82,803,-618,247,67,-90,29,637,-965,45,18,-107,-11,212,-978,-516,-9,-103,-50,20,-850,-744,-38,-74,-73,-101,-640,-1085,-48,-33,-80,-481,-349,-1103,-77,13,-97,-744,16,-888,-78,62,-64,-720,379,-648,-64,85,-47,-952,614,-358,-50,112,-24,-890,886,43,-35,101,25,-556,984,530,21,76,85,-157,831,633,47,27,88,70,469,742,43,-18,82,277,100,744,46,-40,74,234,-390,546,27,-49,32,427,-585,184,-2,-53,-7,226,-597,238,-21,-33,-28,95,-484,-93,-23,-10,-29,56,-291,-54,-23,-11,-23,149,-62,-142,-11,-5,-22,-114,-29,82,-9,0,-9,40,9,-28,-2,-3,-2,-9,50,36,clockwise
-85,39,-153,232,237,-491,-79,25,-119,-80,962,-144,-33,72,-57,-111,1085,53,6,69,-10,166,966,282,44,55,25,339,630,379,88,39,81,407,283,703,113,18,111,829,-301,468,99,-51,77,936,-830,163,62,-85,24,736,-1157,-159,8,-101,-38,316,-1166,-620,-29,-86,-86,379,-857,-1315,-65,-87,-120,-698,-471,-1095,-76,-2,-117,-803,-174,-1230,-86,41,-95,-1177,329,-510,-88,69,-52,-977,780,-548,-71,89,-16,-1291,936,469,-39,114,33,-534,953,215,3,57,85,-340,933,814,40,29,111,105,425,622,61,-3,94,343,-28,640,44,-50,67,360,-332,406,32,-51,31,460,-537,236,-2,-45,-6,305,-553,190,-18,-38,-28,210,-385,-23,-27,-19,-28,20,-228,24,-14,2,-17,91,-94,-136,-9,-4,-9,-44,-50,51,-3,0,-5,-49,-50,39,-2,-1,-5,-28,-10,-10,1,0,0,-56,-10,31,clockwise
-87,27,-156,189,477,-590,-88,44,-120,-88,974,-128,-57,88,-75,38,1166,138,5,66,-13,384,1131,455,67,53,35,455,624,482,104,45,88,659,260,715,119,-14,106,986,-320,274,104,-74,77,877,-918,-159,64,-86,6,458,-1350,-426,-14,-110,-68,124,-1159,-915,-54,-117,-117,-237,-839,-1212,-63,-58,-120,-809,-468,-1129,-77,-16,-102,-992,58,-749,-75,34,-80,-1135,523,-321,-80,88,-30,-924,898,-237,-61,120,10,-1070,916,315,-50,108,47,-576,997,304,3,90,90,-259,704,678,24,51,125,279,211,544,62,-16,86,438,-172,679,59,-51,62,588,-428,318,41,-59,19,570,-594,394,8,-51,-15,398,-575,200,-24,-55,-42,159,-334,-217,-37,-17,-26,-81,-220,84,-33,-3,-17,38,-30,-107,-14,5,-6,-145,-18,39,-8,-1,-7,-62,26,-9,4,4,1,-63,47,45,3,2,2,-7,35,0,clockwise
-62,-4,-157,17,382,-519,-77,31,-117,138,1052,-200,-48,66,-47,95,1251,102,-13,65,5,231,913,409,61,52,43,588,542,455,94,16,86,523,33,637,122,-25,97,616,-611,478,106,-66,67,772,-1130,183,60,-102,1,497,-1252,-261,-26,-98,-73,26,-1143,-875,-57,-63,-115,-85,-571,-1225,-93,-11,-124,-716,-157,-1263,-114,24,-102,-985,321,-998,-91,84,-59,-986,824,-640,-68,94,-11,-1014,1138,-55,-40,88,54,-754,1018,421,8,53,88,-262,750,627,58,25,95,106,245,644,60,-17,81,324,-211,774,39,-43,43,470,-550,363,17,-42,11,376,-572,344,-12,-36,-20,343,-400,76,-25,-22,-32,62,-184,-12,-22,-16,-30,-19,-93,15,-7,-4,-6,-76,1,-15,-3,2,-9,-65,19,-21,4,7,4,-38,7,3,4,-1,0,-21,0,46,2,0,1,8,9,0,0,0,1,10,27,20,clockwise
-100,47,-122,298,819,-375,-68,49,-81,-82,938,94,-57,87,-46,92,915,309,8,65,16,424,834,569,52,34,42,534,504,435,78,0,83,495,54,592,96,-33,87,684,-438,233,99,-92,63,620,-880,48,42,-109,-4,227,-1182,-367,-19,-86,-55,46,-1058,-964,-41,-60,-99,-239,-768,-1035,-71,-16,-112,-583,-396,-975,-92,16,-102,-743,127,-782,-87,55,-68,-790,735,-614,-65,69,-28,-973,995,-222,-44,82,27,-850,974,255,-16,74,75,-356,863,288,27,55,88,-118,481,452,42,23,81,139,-95,543,44,-9,57,381,-356,552,34,-22,24,552,-400,269,19,-42,-12,346,-412,364,0,-35,-21,219,-303,149,-7,-26,-22,110,-143,5,-16,-10,-18,7,-100,51,-11,-10,-12,-23,-39,23,-4,-2,-5,-55,-3,18,-1,2,0,-30,1,-1,0,2,0,-33,-1,2,2,0,2,-2,6,-1,clockwise
-100,12,-128,168,553,-442,-68,56,-101,31,1064,-58,-49,87,-48,114,1149,287,-16,67,0,369,1027,538,50,53,30,570,694,503,93,7,82,534,146,589,103,-33,92,604,-488,428,99,-82,65,770,-956,-3,65,-103,10,402,-1246,-322,-13,-104,-37,149,-1164,-971,-54,-66,-85,-198,-700,-1096,-79,-25,-115,-492,-342,-1285,-95,18,-96,-873,75,-803,-94,44,-62,-986,560,-638,-74,69,-32,-1116,791,-153,-53,93,10,-806,878,44,-15,78,81,-417,871,549,34,45,90,-153,507,568,59,26,80,229,-25,581,45,-10,50,367,-282,541,39,-32,23,449,-414,399,18,-42,-13,272,-477,314,-13,-34,-23,227,-309,181,-19,-19,-25,80,-116,-37,-10,-9,-11,40,-51,-2,-6,-4,-6,-6,-22,78,-1,-2,-4,17,8,-37,3,0,-4,-29,-1,-21,2,-1,0,-15,-2,29,2,1,2,-6,6,0,clockwise
-113,17,-111,155,545,-667,-51,50,-97,11,903,-55,-33,67,-54,13,953,231,-10,66,-16,81,896,413,35,52,13,419,744,279,78,18,62,480,428,640,81,-24,85,507,-126,496,84,-61,78,567,-654,214,67,-91,46,529,-1083,-42,12,-102,-6,278,-1266,-615,-24,-73,-50,216,-1062,-939,-54,-44,-83,7,-651,-1145,-74,-9,-101,-449,-229,-1004,-89,21,-90,-729,225,-792,-87,49,-56,-985,672,-472,-68,77,-28,-1144,920,-192,-39,82,20,-1029,861,365,-3,69,81,-512,639,596,29,47,86,-62,299,566,47,17,75,255,-72,474,43,-17,51,433,-339,435,34,-29,22,574,-421,282,10,-36,-22,405,-322,218,-4,-33,-27,218,-155,74,-11,-19,-26,27,-81,-22,-9,-10,-15,-23,-56,69,-7,-6,-8,-73,-21,79,0,-4,-1,-21,-4,15,1,0,0,-44,0,-25,3,3,1,23,18,-15,clockwise
-92,23,-133,-226,648,-327,-36,33,-90,-168,919,-12,-31,56,-63,-294,895,148,-8,57,-23,-4,867,310,37,53,15,272,746,326,72,33,60,282,417,639,70,11,82,605,-67,463,77,-38,80,878,-549,235,65,-76,46,813,-1020,-53,11,-105,-15,454,-1270,-334,-15,-94,-49,428,-1102,-920,-39,-78,-85,36,-762,-1107,-60,-33,-96,-562,-304,-1082,-88,20,-92,-937,243,-926,-88,66,-56,-1061,727,-515,-75,86,-18,-1084,924,-228,-41,97,33,-1030,865,314,-1,72,70,-451,660,564,39,39,95,-81,254,727,55,2,82,331,-113,594,48,-26,45,395,-345,571,28,-47,13,477,-402,343,0,-41,-16,308,-381,152,-13,-35,-30,169,-209,-38,-19,-17,-27,-18,-113,58,-15,-4,-12,10,-43,-29,-6,1,-10,-41,-24,-4,1,5,-1,-24,14,14,0,1,-3,10,28,-11,1,-1,0,-10,15,1,clockwise
-80,44,-138,12,1379,-539,-31,46,-92,28,1319,-89,-9,54,-48,96,1164,123,27,69,11,266,911,399,48,46,39,419,589,323,75,13,83,547,29,615,72,-15,91,665,-533,360,65,-54,66,628,-950,289,32,-87,15,609,-1136,-206,-14,-97,-41,264,-1040,-709,-38,-66,-68,-42,-739,-1083,-63,-41,-93,-358,-332,-1124,-72,7,-80,-692,-39,-1085,-87,27,-87,-1111,308,-593,-67,66,-34,-919,651,-211,-52,60,-17,-991,884,-25,-10,82,45,-545,800,381,11,43,47,-309,719,729,48,39,83,158,435,592,60,0,57,152,-35,736,56,-7,56,528,-410,155,31,-48,11,334,-490,459,10,-30,2,332,-506,68,-14,-36,-19,196,-414,80,-32,-12,-22,80,-209,-85,-24,-6,-25,-44,-73,-168,-15,9,-17,-105,11,20,-4,4,-4,9,71,20,1,2,1,-63,64,74,8,-1,4,11,40,29,clockwise
-106,12,-128,-52,830,-334,-65,10,-102,-284,1140,-145,-13,50,-58,-96,1141,49,4,59,-11,179,974,228,27,53,13,337,715,270,74,34,63,486,288,440,87,13,86,713,-327,445,74,-40,74,770,-839,261,55,-74,36,575,-1115,-45,15,-94,-4,299,-1150,-403,-21,-78,-42,133,-967,-703,-46,-54,-70,-122,-659,-993,-69,-25,-89,-499,-333,-983,-82,7,-81,-698,-11,-825,-79,35,-66,-886,408,-550,-66,70,-45,-881,771,-285,-42,72,-8,-846,951,195,-16,72,39,-595,968,401,24,61,66,-240,814,592,52,32,76,139,380,605,58,-12,76,185,-118,650,41,-26,56,440,-394,419,31,-34,16,442,-519,169,1,-40,-16,287,-502,128,-19,-28,-26,114,-378,111,-25,-14,-29,99,-159,-121,-18,-7,-25,-97,-47,-3,-13,0,-10,-61,29,5,-3,1,1,-74,34,60,5,3,4,-7,26,4,clockwise
-105,1,-118,56,711,-619,-56,33,-94,64,1052,-273,-14,47,-54,10,1080,69,-6,59,-13,136,948,236,25,53,19,375,713,252,80,39,59,574,319,530,93,1,82,692,-311,663,83,-44,73,868,-862,270,68,-88,32,735,-1163,-81,15,-104,-16,263,-1182,-463,-33,-89,-44,58,-912,-898,-66,-58,-80,-319,-520,-1226,-85,-10,-91,-706,-129,-1265,-98,24,-77,-955,289,-793,-72,58,-45,-823,726,-582,-59,80,-23,-1107,904,-48,-32,85,28,-740,869,394,-1,59,69,-452,708,786,44,45,77,-94,359,618,45,7,67,108,-111,818,44,-19,48,497,-370,453,34,-44,18,372,-394,298,12,-33,-14,330,-345,163,-12,-34,-18,191,-250,19,-18,-15,-22,93,-145,-58,-14,-11,-14,-41,-89,-11,-8,1,-8,-27,-64,4,-4,-1,-2,-42,-26,9,1,3,-2,11,-3,-36,2,1,-1,-11,1,-16,clockwise
-89,-1,-138,-281,558,-360,-76,6,-95,-738,774,42,-20,47,-49,226,939,14,-3,52,-30,-1,864,330,14,52,0,241,734,243,70,51,60,392,533,750,89,14,86,990,40,235,70,-45,74,482,-566,504,59,-77,58,742,-978,-192,27,-103,6,506,-1189,-354,-25,-103,-40,253,-1150,-944,-53,-57,-77,-149,-788,-976,-63,-25,-91,-487,-379,-1042,-85,13,-82,-733,68,-873,-75,44,-54,-1007,483,-419,-63,67,-28,-926,710,-265,-40,67,4,-1050,743,341,-22,79,49,-470,730,347,16,50,57,-247,562,540,40,28,68,155,193,493,52,-2,55,336,-153,567,46,-24,39,522,-298,325,30,-41,-2,404,-352,214,10,-32,-9,284,-378,121,-14,-28,-23,103,-238,75,-21,-13,-20,0,-62,2,-15,-2,-17,-43,-11,-17,-5,5,-2,-58,0,21,0,1,-1,-51,33,14,6,5,3,3,12,-13,clockwise
-91,-15,-135,37,843,-645,-38,12,-95,-84,1085,-278,-20,25,-92,-560,1207,137,10,61,-23,148,1133,198,21,53,17,248,823,267,77,49,74,616,351,458,80,13,82,730,-330,731,73,-28,96,1157,-861,0,41,-76,43,820,-1225,-91,13,-100,-18,442,-1251,-671,-32,-85,-59,0,-1004,-871,-59,-61,-85,-351,-558,-1121,-69,-22,-94,-733,-265,-1108,-77,7,-81,-1174,181,-558,-68,54,-52,-1021,578,-345,-57,64,-26,-1085,824,83,-27,80,23,-788,880,320,4,74,63,-513,803,666,37,55,82,99,484,514,49,10,85,331,38,570,39,-19,57,576,-297,281,27,-37,22,477,-434,437,2,-43,-12,445,-411,100,-14,-39,-25,140,-339,100,-19,-19,-32,-3,-202,-19,-9,-5,-20,-134,-55,72,-6,0,-7,-39,5,45,0,4,2,-24,16,2,3,3,0,-7,-5,-1,4,0,0,-11,18,17,clockwise
-115,-9,-124,-83,387,-620,-42,49,-92,-151,775,-168,-19,42,-57,-46,921,102,-21,67,-26,-76,831,280,24,54,18,305,699,315,72,44,55,557,491,665,74,-8,70,723,23,571,75,-45,68,759,-562,201,73,-90,45,861,-936,49,16,-105,-12,438,-1144,-462,-25,-100,-43,140,-1071,-984,-52,-61,-64,-244,-758,-1105,-77,-17,-85,-481,-322,-1120,-86,13,-75,-829,162,-840,-78,55,-55,-994,651,-600,-56,79,-13,-1018,895,-88,-31,84,11,-975,877,260,6,70,66,-460,666,572,28,53,67,-225,326,704,49,14,75,125,-152,616,39,-16,48,358,-359,546,28,-34,32,571,-412,169,6,-33,-16,290,-339,192,-3,-31,-15,257,-226,54,-15,-20,-30,152,-54,-94,-10,-5,-22,-43,-57,-16,-4,0,-16,1,-65,38,-1,2,-1,-88,-5,108,2,1,-3,20,3,-19,2,3,1,-23,0,38,clockwise
-93,14,-136,276,1160,-820,-48,27,-99,-162,1221,-231,-9,70,-65,-29,1173,17,28,66,-4,6,943,409,41,53,30,342,639,319,84,42,78,582,100,773,87,1,88,931,-497,441,72,-66,70,1011,-989,365,27,-101,15,942,-1172,-250,-13,-115,-38,270,-1042,-742,-49,-90,-79,-113,-757,-1152,-73,-55,-102,-744,-298,-1308,-84,-2,-90,-1000,131,-1224,-72,48,-57,-1293,564,-540,-54,82,-27,-976,780,-402,-27,86,18,-984,844,340,5,88,62,-454,661,471,23,53,76,-194,453,903,31,19,68,212,69,626,41,-6,59,455,-290,529,23,-40,20,503,-380,374,3,-47,-9,444,-358,163,-5,-32,-16,218,-290,95,-10,-21,-23,182,-214,-84,-15,-15,-22,-111,-93,61,-10,1,-8,-29,-53,-26,-2,1,0,-104,2,64,1,3,1,-15,-16,-41,2,0,2,-47,-8,12,3,1,0,32,2,-25,clockwise
-108,-16,-133,196,1102,-481,-42,16,-99,-180,1160,-97,-21,53,-46,27,1143,85,-11,66,-3,83,953,384,32,52,33,516,718,349,89,43,68,665,191,676,101,-8,86,840,-426,377,97,-62,61,820,-965,228,74,-100,10,774,-1273,-352,10,-112,-50,22,-1336,-683,-46,-88,-80,-132,-981,-1208,-98,-29,-112,-783,-445,-1247,-114,17,-100,-889,137,-1109,-92,60,-60,-1137,693,-469,-67,90,-25,-998,1000,-423,-44,98,32,-986,1009,460,-4,73,75,-389,785,675,14,50,82,-138,530,688,35,3,73,243,156,702,39,-20,57,457,-213,528,33,-49,22,474,-420,518,26,-51,-8,442,-402,43,19,-43,-16,239,-431,-63,-12,-22,-20,68,-383,62,-22,-12,-15,41,-205,-104,-18,0,-16,-49,-51,-82,-12,10,0,15,9,-17,-7,3,0,-59,27,40,2,5,1,2,45,-11,6,-1,2,-53,35,66,clockwise
-54,-33,-148,-689,-209,-218,-44,39,-84,-353,542,-122,-19,33,-54,-107,868,-13,0,69,-19,118,879,127,16,55,-1,218,680,368,47,61,63,658,628,512,68,8,68,785,173,499,68,-27,73,703,-377,210,58,-74,49,559,-773,323,37,-89,22,519,-986,-308,5,-105,-29,93,-1067,-579,-23,-75,-44,-126,-935,-893,-46,-46,-66,-280,-646,-951,-68,-15,-84,-477,-370,-1015,-83,10,-75,-764,54,-679,-71,49,-54,-847,515,-450,-54,69,-33,-772,793,-137,-40,80,-1,-759,870,193,-2,74,46,-550,853,485,21,59,67,-134,649,575,39,22,74,118,203,578,30,-1,61,236,-63,491,41,-24,44,439,-245,302,14,-34,6,359,-330,122,7,-33,-7,141,-364,215,-10,-21,-20,92,-219,24,-5,-15,-17,27,-187,-25,-12,0,-16,-45,-137,49,-2,-2,-1,41,-89,61,0,-1,-6,23,-39,18,clockwise
-76,7,-143,216,610,-568,-71,5,-111,-163,1001,-178,-58,69,-69,-111,1244,-25,-22,67,-40,179,1178,244,55,54,16,417,905,313,94,51,76,651,420,635,125,15,109,843,-295,367,127,-46,85,1113,-924,88,81,-94,40,688,-1294,-149,-12,-99,-23,289,-1332,-742,-47,-97,-67,-74,-948,-925,-84,-61,-98,-422,-432,-1161,-88,-29,-87,-841,-118,-924,-78,22,-59,-869,231,-655,-54,49,-48,-1000,577,-369,-63,80,-32,-1055,801,64,-48,96,5,-881,865,317,-13,88,63,-643,795,542,33,67,84,-313,527,614,29,20,102,93,-48,597,44,-19,84,547,-209,417,47,-46,37,480,-522,344,7,-49,-19,458,-487,198,-16,-48,-32,338,-414,148,-11,-22,-43,213,-124,-156,-8,-12,-31,-100,-213,178,-6,-3,-9,55,-44,52,2,-3,1,-8,-39,70,1,-1,-1,29,-3,7,-1,-1,-4,-9,11,-30,clockwise
-80,10,-134,149,645,-479,-67,0,-113,19,1115,-243,-44,61,-74,15,1396,-54,-17,66,-46,-103,1203,251,43,53,21,590,883,312,95,51,64,837,410,615,124,3,89,813,-408,491,116,-50,84,905,-1041,356,81,-91,53,1002,-1318,-253,3,-106,-28,12,-1341,-571,-42,-93,-54,-174,-986,-1039,-84,-49,-92,-590,-425,-1267,-90,-12,-107,-964,-140,-1251,-93,39,-92,-1174,313,-641,-79,79,-56,-982,802,-485,-68,86,-18,-1181,917,238,-40,98,40,-701,906,447,-2,71,92,-266,788,736,38,38,109,151,383,715,48,-11,91,415,-140,632,45,-43,55,575,-379,435,31,-55,6,459,-503,301,2,-49,-20,326,-446,122,-15,-42,-33,86,-335,14,-19,-14,-26,-38,-219,-39,-17,-1,-19,-96,-116,36,-8,3,-1,12,-38,11,-4,3,-5,-6,-1,7,0,1,-3,3,0,22,1,-1,-3,-4,34,21,clockwise
-101,-10,-142,107,1219,-905,-65,61,-98,186,1405,-404,-25,75,-53,-44,1358,158,3,67,-18,309,1127,382,50,54,19,543,769,340,89,39,57,670,241,531,104,-24,84,689,-431,675,101,-53,68,920,-930,86,72,-95,33,480,-1221,-174,4,-105,-19,42,-1255,-708,-28,-91,-42,-226,-1070,-1055,-59,-40,-83,-281,-745,-1394,-88,-20,-102,-893,-371,-1103,-105,43,-92,-791,128,-811,-83,80,-66,-826,679,-323,-63,93,-35,-849,1062,-182,-38,91,26,-799,1143,586,3,82,87,-274,933,755,48,34,112,1,501,774,51,-12,107,244,96,793,33,-28,72,464,-369,386,24,-56,17,287,-464,404,1,-57,-15,236,-441,175,-12,-37,-29,72,-297,-3,-21,-12,-34,12,-322,-107,-9,-8,-19,-59,-157,61,-5,8,-4,21,-106,5,-2,4,-2,66,-42,-13,-5,1,-7,-17,-40,18,1,-1,-3,25,8,-21,clockwise
-116,-6,-105,-1,976,-462,-117,27,-103,-155,1277,-247,-40,86,-90,-148,1396,108,3,65,-37,174,1289,484,65,52,9,454,917,489,104,45,45,531,271,604,137,0,79,726,-383,538,106,-58,83,1073,-959,348,54,-92,39,781,-1340,-390,-26,-96,-14,419,-1295,-838,-58,-86,-49,430,-805,-1302,-84,-45,-79,-209,-355,-1501,-104,-19,-90,-907,6,-1180,-84,34,-58,-1211,316,-637,-81,65,-42,-1303,595,-401,-62,90,-11,-1444,745,390,-32,66,31,-965,707,681,19,61,78,-547,607,847,34,33,74,-45,439,792,56,-3,86,328,-72,596,41,-42,58,547,-367,366,28,-41,19,535,-499,188,-1,-38,-19,478,-502,0,-19,-34,-28,289,-469,59,-24,-16,-39,74,-137,-99,-11,-5,-24,-105,-28,-7,-7,8,-9,-62,46,65,0,0,1,-39,36,63,6,4,3,3,42,32,5,-4,0,-1,15,7,clockwise
-96,-23,-124,336,389,-968,-54,24,-114,-341,907,-355,-34,65,-83,75,1171,-130,-3,62,-42,-9,1157,241,41,55,-1,233,919,96,88,60,42,358,713,737,97,26,77,858,211,432,102,-34,87,808,-483,559,78,-68,70,872,-1039,-120,25,-95,15,636,-1256,-276,-14,-107,-18,232,-1265,-943,-30,-81,-47,-52,-1098,-1178,-57,-55,-69,-545,-703,-1162,-83,0,-97,-850,-244,-1188,-90,35,-81,-1112,170,-547,-80,73,-50,-954,563,-261,-66,72,-27,-1004,864,144,-36,101,4,-696,965,383,11,71,61,-350,919,811,31,53,94,41,638,891,46,12,87,151,208,659,34,-9,70,324,-178,487,24,-50,54,423,-452,433,6,-57,5,382,-561,164,0,-53,-22,192,-501,75,-18,-34,-34,192,-306,-98,-11,-14,-24,-27,-186,-89,-13,6,-23,-38,-59,-107,-10,7,-3,-72,-27,90,-6,8,-3,24,11,-32,clockwise
-96,-16,-139,-22,969,-904,-59,12,-102,-153,1149,-416,-44,62,-77,-212,1230,-130,-5,61,-37,-109,1099,159,52,52,0,356,825,132,84,55,54,556,417,547,104,17,73,743,-133,503,95,-40,83,944,-652,397,57,-81,60,802,-1008,67,-11,-100,18,219,-1101,-339,-31,-102,-16,-60,-971,-574,-59,-73,-28,-198,-693,-849,-55,-48,-39,-441,-450,-876,-43,-12,-41,-425,-212,-854,-50,12,-47,-402,-2,-670,-45,36,-45,-566,153,-434,-42,52,-51,-696,328,-71,-38,65,-33,-669,472,158,-35,62,-13,-567,617,140,-13,66,12,-529,655,507,-1,51,27,-241,658,495,23,38,55,-58,520,571,33,4,58,45,347,366,47,0,50,81,33,353,45,-19,50,352,-171,197,37,-38,23,307,-324,139,8,-37,-3,301,-450,135,-2,-23,-16,252,-419,-10,-19,-16,-26,205,-290,-118,-21,-13,-28,-35,-212,36,clockwise
-33,14,-157,-590,150,-281,-31,26,-104,-266,700,-95,-18,55,-81,-219,1012,58,1,48,-43,-6,1062,153,23,49,-22,155,903,138,52,42,34,460,754,373,70,21,64,631,277,447,78,-31,83,693,-385,375,64,-47,73,635,-901,122,30,-77,50,506,-1137,14,-5,-78,17,315,-1143,-422,-34,-74,-19,-6,-1013,-632,-51,-39,-45,-145,-733,-762,-62,-26,-61,-273,-426,-831,-61,2,-70,-451,-180,-814,-59,15,-69,-620,96,-530,-50,44,-56,-697,422,-251,-40,51,-35,-627,625,0,-26,56,-10,-651,728,128,-7,59,23,-465,779,304,18,52,48,-218,697,503,29,27,59,75,418,382,41,5,64,148,163,505,35,-6,44,333,-44,238,29,-30,29,318,-190,295,10,-31,-1,166,-328,219,3,-27,-1,157,-312,136,-10,-19,-21,97,-231,36,-5,-10,-13,-9,-185,-8,-8,-2,-14,-49,-154,92,clockwise
-85,26,-134,-652,415,-420,-44,31,-95,-230,806,-217,-20,42,-69,-203,911,65,-4,57,-32,113,962,150,17,47,-20,167,860,208,59,34,32,497,682,393,70,15,62,541,232,594,71,-16,83,703,-266,291,62,-53,68,650,-788,172,36,-76,52,576,-1122,-101,0,-81,10,308,-1154,-518,-26,-73,-19,290,-972,-767,-38,-55,-52,-20,-716,-957,-54,-26,-80,-370,-446,-1058,-64,-5,-71,-682,-148,-872,-60,23,-75,-860,92,-728,-54,60,-70,-1064,440,-379,-45,81,-51,-856,838,-150,-20,79,8,-688,1058,291,8,87,36,-280,1006,592,38,60,84,53,702,717,47,13,86,314,294,738,36,-24,83,347,-225,631,31,-51,48,415,-491,369,0,-52,10,206,-586,351,-18,-43,-19,182,-416,120,-22,-28,-23,2,-340,-71,-12,-10,-20,-46,-207,-71,-19,4,-22,-99,-123,69,0,0,-9,4,-35,-42,clockwise
-63,-10,-142,-248,672,-354,-57,9,-111,-700,887,-25,-42,68,-85,-533,1229,57,-13,64,-54,-140,1398,116,52,51,-6,463,1079,222,89,53,56,697,521,647,110,10,81,1143,-65,487,108,-49,88,1364,-700,48,65,-95,61,1057,-1227,-11,-15,-102,11,304,-1248,-302,-50,-106,-26,-2,-850,-855,-72,-68,-48,-345,-480,-1051,-78,-39,-55,-688,-173,-1061,-72,2,-50,-901,20,-886,-66,25,-39,-1027,145,-578,-56,62,-26,-1012,291,-281,-51,71,-14,-884,439,-80,-31,87,-3,-904,472,344,0,80,32,-349,537,507,28,58,41,-127,462,609,35,20,51,217,302,557,49,0,47,306,94,701,42,-26,45,565,-126,319,38,-38,19,294,-389,373,7,-35,3,415,-452,114,-1,-30,-13,178,-372,45,-14,-17,-18,167,-300,-45,-18,-15,-19,24,-186,5,-19,-1,-18,46,-29,-101,-7,0,-9,-20,54,19,clockwise
-98,18,-126,-83,120,-498,-48,32,-93,-365,680,-13,-15,61,-45,-130,1009,133,-4,48,-28,52,992,201,29,46,9,148,730,114,59,48,44,371,548,515,78,17,73,793,45,418,71,-34,66,799,-559,236,62,-55,61,699,-973,116,16,-79,12,589,-1063,-203,-7,-98,-13,246,-1014,-568,-36,-77,-48,-127,-823,-667,-52,-53,-61,-305,-467,-890,-72,-24,-83,-547,-108,-971,-69,5,-65,-780,251,-749,-58,44,-48,-833,492,-470,-51,58,-23,-935,648,-181,-37,86,0,-853,654,69,-7,81,41,-558,604,348,13,68,41,-317,432,644,28,32,50,69,324,619,36,7,52,264,187,583,50,-21,41,383,-14,365,36,-31,19,448,-212,391,22,-43,8,428,-326,90,3,-33,-9,193,-405,60,-8,-23,-19,177,-364,-18,-24,-13,-22,58,-243,-94,-18,-7,-20,-85,-138,-9,-13,4,-10,-74,-57,5,clockwise
-65,35,-138,-441,1684,-204,-30,56,-46,-165,1306,100,-22,51,-31,-133,1093,271,2,49,-11,30,891,312,25,40,8,225,679,259,59,27,64,524,166,422,68,-3,63,612,-281,396,68,-30,63,823,-648,60,47,-58,41,774,-909,-81,14,-77,4,465,-1058,-424,-11,-75,-37,217,-995,-629,-34,-68,-65,59,-739,-913,-51,-50,-89,-510,-448,-953,-60,-6,-73,-653,-61,-831,-75,27,-65,-948,419,-503,-62,56,-35,-847,738,-441,-47,78,0,-921,792,58,-21,88,28,-579,846,175,0,62,42,-381,741,747,33,41,55,99,475,449,40,7,52,94,104,693,48,-18,36,242,-15,596,38,-30,36,370,-206,415,30,-41,20,378,-364,116,11,-38,3,225,-485,120,-6,-29,-10,120,-371,10,-20,-15,-14,80,-291,-112,-19,-8,-18,-37,-222,-146,-19,4,-18,-144,-136,-9,-7,8,-3,-44,-43,-1,clockwise
-81,32,-130,-245,1379,-82,-58,25,-78,-460,1288,194,-44,71,-39,-187,1223,258,-8,63,-6,-12,973,479,26,50,18,267,683,460,65,34,60,557,178,588,85,8,65,892,-313,226,91,-53,55,1067,-750,102,58,-83,15,949,-988,-204,9,-103,-26,496,-1001,-740,-25,-98,-49,121,-767,-897,-58,-76,-66,-282,-433,-1202,-78,-29,-81,-859,-105,-1123,-77,11,-57,-1069,253,-881,-59,67,-36,-1186,502,-421,-46,93,-9,-1026,615,-161,-27,103,13,-811,632,327,8,78,53,-417,544,567,30,58,59,-73,462,908,36,10,62,310,212,719,37,-30,47,260,19,666,32,-42,37,352,-172,448,13,-38,11,311,-326,209,-4,-36,-7,239,-420,78,-16,-29,-18,94,-314,128,-16,-9,-23,210,-245,-111,-11,-12,-21,-4,-180,1,-9,-5,-13,31,-55,-96,-5,-6,-6,-38,-43,25,-1,3,3,30,-37,-157,clockwise
-27,63,-141,-321,1119,142,-14,37,-72,-143,1152,196,-7,37,-41,-132,1024,241,5,42,-20,4,820,266,21,43,-1,166,645,316,48,24,45,410,295,386,61,10,57,542,-164,391,68,-18,63,756,-600,195,56,-52,46,730,-841,52,22,-75,18,544,-960,-279,-13,-79,-16,326,-915,-555,-41,-73,-40,42,-708,-831,-64,-50,-62,-312,-377,-943,-67,-19,-62,-570,-85,-886,-71,12,-55,-745,158,-729,-63,34,-38,-831,415,-395,-39,58,-22,-896,582,-101,-16,70,3,-756,666,215,-8,64,22,-576,627,369,27,55,47,-323,515,599,43,39,56,-67,239,539,41,9,57,240,31,525,30,-14,36,401,-130,381,30,-25,19,438,-257,282,10,-37,-7,340,-304,123,-3,-35,-17,208,-248,153,-10,-23,-23,93,-207,-53,-11,-12,-17,-49,-190,-1,-13,-1,-11,-74,-114,-15,-9,1,-3,8,-71,-16,clockwise
-2,134,-80,8,2643,720,36,74,-16,277,1412,621,44,55,10,229,876,631,52,37,41,415,525,512,46,17,42,560,216,410,48,-30,57,637,-507,111,30,-45,37,633,-703,-42,5,-69,10,500,-774,-356,-20,-70,-24,268,-745,-597,-30,-67,-46,-75,-587,-666,-43,-47,-52,-341,-390,-790,-49,-26,-54,-502,-203,-704,-52,2,-49,-711,29,-648,-45,24,-33,-579,273,-512,-40,51,-28,-842,433,-93,-25,65,-8,-537,514,-75,-14,68,8,-644,590,406,5,63,31,-228,526,178,20,45,37,-280,332,776,22,20,40,184,235,425,30,0,35,108,86,525,28,-14,30,370,-15,229,31,-24,16,290,-182,270,16,-28,-6,253,-206,95,11,-22,-2,181,-260,27,-3,-16,-13,128,-193,5,-7,-14,-15,22,-211,-8,-12,-5,-14,-5,-117,1,-7,-1,-6,-23,-68,5,-4,0,-5,-21,-37,16,clockwise
-52,119,-87,8,2626,115,-18,59,-20,175,1429,287,10,85,12,148,891,479,39,61,25,544,623,539,42,38,28,645,354,404,61,-16,48,681,-335,317,58,-39,37,658,-594,137,39,-92,10,573,-767,-175,3,-100,-11,127,-856,-545,-16,-93,-28,-145,-780,-702,-38,-65,-42,-321,-600,-934,-53,-24,-50,-373,-333,-923,-67,4,-58,-663,-17,-707,-64,37,-43,-618,274,-487,-54,57,-33,-855,469,-104,-44,79,-15,-709,569,-92,-21,65,4,-713,615,469,6,62,34,-343,555,268,23,41,41,-262,445,580,26,24,44,130,326,388,34,2,39,170,211,394,35,-6,34,327,72,321,25,-21,12,380,-40,170,22,-21,3,364,-232,221,15,-33,-5,315,-291,173,9,-30,-9,217,-335,28,-4,-27,-13,56,-328,18,-6,-6,-3,-35,-280,46,-15,-7,-7,-45,-159,-56,-14,6,-4,-87,-99,-26,clockwise
-67,-4,-140,-272,977,-80,-48,12,-76,-289,1070,37,-34,45,-48,-210,1098,139,-20,64,-25,56,1014,189,15,51,-1,232,789,345,65,52,44,563,413,546,78,26,55,820,-14,508,79,-28,60,960,-460,116,70,-71,49,800,-811,70,30,-98,16,470,-988,-235,-14,-105,-13,104,-916,-728,-29,-94,-33,-191,-773,-861,-36,-63,-52,-398,-532,-960,-48,-34,-63,-486,-252,-1008,-56,8,-64,-784,101,-833,-64,51,-55,-799,351,-513,-55,81,-35,-929,572,-223,-46,106,-6,-843,724,-115,-22,103,22,-793,684,607,1,89,48,-235,550,676,36,38,68,-25,376,785,33,5,66,291,142,650,39,-34,58,367,-143,710,31,-44,34,553,-259,235,20,-54,11,360,-403,72,-8,-38,-12,217,-406,77,-7,-28,-20,134,-359,-33,-19,-11,-31,32,-242,-100,-19,-8,-23,-147,-174,-1,-15,1,-9,-49,-44,27,clockwise
-36,117,-104,-332,2629,155,-17,111,-48,74,1596,475,16,87,1,313,1129,684,35,57,19,485,789,647,44,20,27,475,494,376,59,-21,54,722,-294,288,66,-58,52,670,-646,145,43,-85,19,607,-865,-295,14,-95,-6,279,-929,-560,-15,-72,-24,258,-830,-849,-35,-62,-44,-195,-540,-832,-56,-39,-55,-340,-200,-1009,-60,-14,-54,-684,91,-703,-60,27,-41,-750,334,-711,-49,51,-39,-1121,456,-177,-39,82,-6,-724,547,-78,-21,80,3,-794,508,336,-6,80,42,-389,452,410,20,45,50,-126,274,727,28,25,59,299,115,469,32,-6,36,210,-103,588,27,-15,36,396,-197,253,21,-27,5,262,-284,294,4,-22,-7,234,-244,114,-3,-24,-14,114,-175,70,-2,-17,-14,69,-112,69,-1,-11,-15,31,-89,11,-1,-8,-11,16,-46,-1,-2,-4,-8,-37,-41,-13,0,0,-6,-25,-33,2,clockwise
-44,-6,-157,-565,489,-112,-69,40,-86,-256,1027,-82,-40,45,-67,-344,1040,147,-3,56,-33,126,1087,139,24,53,-6,137,767,350,55,50,52,487,479,405,87,9,67,654,-77,629,86,-23,78,873,-541,112,60,-58,57,698,-987,220,17,-87,20,611,-960,-194,-14,-89,-18,329,-864,-679,-42,-73,-39,79,-642,-821,-59,-52,-55,-221,-363,-1019,-66,-28,-58,-544,-92,-984,-62,1,-47,-658,70,-827,-59,32,-41,-910,292,-550,-41,54,-22,-899,414,-230,-24,72,-3,-870,494,164,-13,70,17,-634,470,242,16,70,36,-449,362,591,25,37,47,-8,205,532,29,21,41,135,87,589,29,-6,30,425,-60,386,28,-21,15,363,-99,347,16,-30,0,379,-116,184,12,-30,-6,316,-99,119,8,-27,-11,118,-115,40,5,-16,-8,77,-121,53,8,-10,-7,-23,-158,96,2,-7,-4,-13,-140,-62,clockwise
-110,24,-112,-384,853,-403,-68,21,-78,-396,862,-89,-44,41,-51,-163,1010,27,-19,47,-29,-153,893,138,3,54,-3,132,711,128,54,49,40,425,466,539,67,24,54,656,100,541,73,-18,59,676,-400,462,59,-47,50,855,-735,201,29,-82,22,743,-953,-10,-17,-99,-16,401,-1026,-471,-39,-85,-33,213,-908,-823,-65,-67,-55,-129,-636,-1022,-67,-34,-60,-407,-309,-1233,-70,-7,-64,-763,100,-919,-47,42,-40,-874,395,-815,-33,59,-35,-964,615,-319,-5,90,-7,-770,717,-83,0,86,5,-657,758,380,22,81,32,-336,671,661,20,31,46,-159,459,817,27,19,61,158,226,709,26,-21,52,305,-6,616,26,-35,40,416,-305,403,10,-49,13,246,-506,250,2,-24,-8,298,-474,-21,-9,-24,-22,103,-388,-36,-17,-3,-22,31,-292,-89,-20,-5,-20,-80,-131,-11,-9,8,-5,4,-13,-51,clockwise
-57,19,-145,-686,1476,-194,-25,73,-61,-330,1335,223,-15,60,-29,-47,1231,405,0,50,5,152,936,457,25,43,17,191,660,345,51,22,61,594,205,497,61,-18,56,727,-279,357,68,-52,51,704,-768,22,49,-65,22,673,-956,-152,9,-92,-7,479,-999,-652,-16,-75,-28,331,-893,-926,-49,-74,-48,-157,-571,-965,-65,-27,-57,-505,-213,-1153,-71,-3,-64,-788,96,-790,-56,35,-43,-922,333,-717,-51,57,-40,-1295,564,-42,-26,85,0,-817,606,99,-16,72,10,-683,568,416,13,62,42,-359,428,627,22,46,46,-19,317,785,34,6,52,332,25,521,35,-11,32,342,-73,422,36,-21,19,515,-138,296,13,-30,0,335,-190,169,3,-34,-9,268,-240,225,-1,-18,-13,126,-166,-60,-5,-15,-11,68,-216,17,-10,-13,-5,-16,-192,29,-4,-7,-3,22,-153,8,-5,-4,-5,-47,-105,25,clockwise
2,163,-35,-470,3668,997,31,118,15,278,1889,676,44,70,37,504,1081,678,42,41,38,528,581,571,40,18,38,630,275,496,40,-32,41,895,-681,-40,26,-64,20,701,-905,-131,6,-76,-12,614,-968,-466,-10,-89,-31,153,-853,-754,-29,-71,-46,-115,-664,-939,-45,-56,-54,-484,-356,-927,-59,-14,-57,-578,-13,-1081,-50,17,-42,-1094,317,-504,-54,68,-27,-805,597,-397,-25,87,-17,-809,773,53,-11,95,3,-544,775,201,17,69,37,-600,590,892,24,48,52,-33,411,687,41,14,43,79,149,754,32,-18,55,203,-125,532,32,-24,43,207,-230,485,14,-30,13,473,-298,85,0,-36,-13,220,-370,35,-6,-28,-9,210,-334,-53,-17,-17,-27,96,-252,-53,-16,-9,-21,57,-233,-135,-11,-5,-17,-85,-125,12,-6,8,-4,16,-36,-69,-2,3,-3,-32,-6,22,1,8,0,12,13,-15,clockwise
-52,80,-143,-381,2980,338,-11,95,-51,-5,1822,567,35,68,7,420,1278,701,37,38,22,483,805,660,40,16,39,496,381,404,47,-17,67,725,-440,257,38,-54,51,761,-781,5,8,-78,11,514,-997,-346,-2,-78,-12,318,-995,-692,-23,-70,-40,253,-769,-948,-35,-59,-50,-95,-507,-1055,-41,-29,-48,-451,-223,-980,-52,-3,-49,-733,86,-731,-45,41,-36,-952,277,-566,-37,66,-35,-1068,422,-91,-25,87,-14,-795,533,185,-13,69,-5,-595,583,475,7,66,31,-305,467,641,16,30,37,50,409,703,24,5,51,231,192,522,30,-18,43,209,21,496,28,-20,40,355,-139,168,14,-28,4,232,-216,150,0,-24,4,226,-279,92,-6,-25,-16,89,-184,59,-6,-10,-17,30,-181,-55,-7,-7,-20,-75,-149,101,2,0,-4,35,-86,34,1,-5,-13,-51,-27,19,2,3,0,-16,-9,1,clockwise
-64,34,-149,-794,561,-6,-56,38,-98,-339,927,38,-16,44,-41,-468,961,256,13,52,-24,144,914,165,23,52,-6,147,763,285,55,28,41,597,567,253,64,7,53,609,152,584,56,-21,57,903,-284,46,35,-47,54,665,-735,246,17,-86,33,624,-1005,-180,-8,-77,10,386,-1082,-403,-23,-82,-13,182,-970,-741,-36,-57,-40,-45,-740,-950,-57,-46,-60,-365,-340,-955,-52,3,-59,-465,6,-1041,-56,27,-62,-898,331,-578,-44,63,-31,-811,516,-384,-32,80,-17,-874,597,120,-15,80,7,-690,625,204,-4,64,24,-603,552,766,15,43,53,-132,406,521,28,22,45,37,264,671,31,-10,39,262,110,395,38,-24,37,271,-75,355,25,-26,19,297,-212,207,12,-26,2,232,-275,139,-1,-24,-8,128,-326,103,-4,-15,-6,77,-268,82,-9,-3,-16,48,-209,73,-7,-10,-9,65,-115,23,clockwise
-82,7,-149,-394,471,-560,-38,8,-83,-376,780,-253,-24,43,-62,-339,814,-36,-2,53,-26,-99,798,111,20,56,3,111,675,172,44,54,52,381,532,512,50,36,67,678,137,557,54,-21,70,803,-290,338,39,-55,50,680,-635,176,11,-89,15,463,-829,-98,0,-97,-6,227,-920,-501,-20,-90,-26,-57,-820,-658,-32,-60,-32,-262,-596,-802,-42,-38,-38,-341,-388,-827,-45,-11,-37,-494,-200,-691,-52,14,-42,-311,75,-686,-42,34,-43,-680,334,-348,-35,66,-31,-535,454,-225,-23,67,-19,-597,509,328,-13,64,-2,-403,579,81,7,46,15,-551,491,640,16,40,34,-48,328,428,26,12,47,-21,219,523,33,7,43,234,119,217,33,-3,32,221,-17,237,20,-6,15,180,-148,95,12,-11,5,168,-180,199,4,-15,-13,124,-208,105,-2,-19,-10,32,-202,152,-4,-12,-9,71,-181,102,clockwise
-97,-19,-133,-117,472,-671,-42,10,-86,-215,719,-365,-19,20,-58,-128,795,-165,-10,51,-49,-117,756,14,21,52,-12,253,736,88,53,55,31,368,575,533,65,32,59,594,194,596,56,-1,65,758,-234,424,52,-53,66,881,-598,173,15,-86,34,520,-921,-5,-5,-95,7,442,-988,-537,-27,-91,-22,61,-878,-836,-32,-63,-40,-39,-643,-1031,-42,-47,-50,-459,-307,-953,-54,-7,-58,-563,21,-979,-51,13,-52,-1082,244,-423,-63,61,-41,-877,428,-397,-45,66,-17,-1017,526,157,-31,83,1,-773,554,91,1,79,25,-582,491,634,13,65,44,-32,437,546,45,28,49,74,260,599,43,12,39,226,134,504,35,-10,33,325,-99,492,26,-31,21,274,-302,327,9,-36,10,303,-374,251,-4,-36,1,311,-299,33,-11,-27,-13,199,-314,28,-13,-20,-14,105,-216,12,-19,-8,-14,82,-77,-103,clockwise
-42,22,-165,-1246,252,-250,-36,77,-93,-600,843,111,-18,67,-78,-247,1098,196,15,62,-39,-3,1078,240,47,55,2,321,929,175,70,44,52,795,630,563,84,-13,69,893,52,468,77,-41,84,949,-537,216,51,-70,63,905,-981,-63,-1,-98,14,454,-1164,-238,-29,-97,-12,165,-979,-664,-52,-71,-35,-78,-675,-975,-59,-51,-57,-454,-401,-1075,-71,-19,-61,-628,-75,-1018,-63,10,-64,-982,198,-736,-47,58,-26,-926,344,-418,-39,73,-36,-875,457,-38,-27,84,1,-675,568,138,-13,78,15,-640,570,684,13,67,54,-116,368,671,14,22,25,-43,324,667,36,2,56,93,67,568,31,-14,37,263,-98,408,36,-31,33,347,-247,320,11,-30,5,405,-242,-57,7,-33,6,255,-320,40,-11,-17,-11,222,-198,-71,-8,-19,-13,73,-160,2,-12,-5,-18,0,-111,-82,-5,-2,-11,-103,-79,58,clockwise
-54,83,-127,-563,1316,-176,-23,49,-67,-333,1106,62,-1,60,-51,-226,1011,114,24,68,-14,173,909,195,44,51,15,301,631,271,63,24,53,605,171,536,64,-5,58,728,-221,398,49,-42,59,817,-498,140,31,-75,38,640,-800,95,-6,-95,0,362,-869,-228,-22,-94,-17,148,-773,-596,-38,-71,-32,-30,-581,-899,-39,-42,-40,-154,-423,-1087,-60,-18,-54,-434,-75,-972,-50,31,-52,-768,172,-780,-49,57,-39,-843,382,-370,-34,71,-25,-849,519,-145,-16,79,0,-897,556,161,-2,79,15,-681,456,639,7,54,28,-226,418,795,16,29,31,0,333,582,28,4,36,69,158,575,25,-1,28,319,70,403,33,-26,34,356,-100,321,21,-33,20,357,-193,36,15,-31,8,250,-272,89,-5,-19,-3,218,-239,-81,-10,-27,-11,75,-282,13,-17,-11,-15,-11,-190,-38,-11,-6,-9,18,-161,-27,clockwise
-35,93,-126,-466,2028,24,-21,76,-61,-285,1309,234,10,71,-19,164,998,295,26,61,2,288,752,394,32,34,11,328,490,372,48,1,48,470,-53,493,55,-30,56,654,-345,250,39,-58,46,603,-565,27,17,-85,19,424,-742,-157,-5,-79,5,260,-756,-453,-26,-75,-20,160,-658,-710,-43,-56,-37,-183,-510,-905,-57,-37,-52,-441,-299,-796,-62,-3,-48,-588,-42,-696,-53,10,-40,-671,134,-575,-40,41,-33,-794,235,-239,-32,55,-14,-599,396,-175,-8,67,-7,-666,459,174,10,64,7,-390,488,209,17,68,13,-316,456,564,28,41,37,-23,399,390,27,30,29,48,265,551,28,0,41,317,32,368,22,-8,32,281,-119,379,18,-26,22,416,-229,258,2,-29,-3,273,-289,79,4,-32,-9,200,-312,23,-8,-20,-17,73,-209,-26,-8,-17,-14,26,-178,-46,-11,-7,-15,-68,-88,-23,clockwise
-63,-4,-142,82,1272,-361,-22,27,-58,-207,1079,-45,-5,48,-30,179,1032,43,1,65,-8,167,836,271,28,50,12,380,637,313,53,27,52,486,220,644,59,1,56,691,-207,401,57,-39,55,592,-631,347,45,-78,38,646,-861,72,1,-91,6,416,-941,-353,-25,-79,-18,180,-818,-783,-50,-64,-39,-73,-575,-975,-63,-36,-53,-238,-276,-1100,-67,-16,-57,-593,-3,-996,-50,15,-49,-826,216,-743,-32,56,-33,-937,364,-289,-22,73,-13,-726,506,-56,-6,67,1,-735,480,401,6,65,27,-401,461,423,11,49,31,-225,348,724,16,13,41,86,249,543,17,-7,24,27,87,472,19,-8,31,172,-16,256,18,-11,9,162,-144,261,12,-17,11,274,-167,135,4,-15,-8,208,-186,66,6,-14,-3,212,-185,53,-3,-15,-16,129,-138,39,-3,-14,-9,84,-95,-6,-4,-9,-12,1,-85,-8,clockwise
-84,-7,-132,-98,431,-601,-39,19,-73,-200,793,-271,-40,74,-73,-249,792,-32,-16,67,-38,271,874,147,25,51,-10,278,737,336,61,48,42,346,548,658,71,17,61,588,83,657,83,-39,86,952,-319,247,64,-78,61,637,-767,334,9,-95,30,445,-909,-279,-19,-98,-7,369,-886,-678,-43,-87,-33,5,-657,-921,-53,-64,-46,-337,-407,-963,-64,-34,-49,-622,-134,-900,-50,5,-42,-625,14,-831,-43,27,-30,-728,177,-507,-43,59,-29,-724,241,-318,-33,71,-20,-711,416,58,-8,78,0,-526,485,225,-1,65,12,-470,489,364,6,53,24,-266,435,622,27,32,40,-80,324,531,29,13,43,65,113,459,29,2,40,199,-83,389,29,-17,27,296,-195,277,19,-22,9,267,-322,169,5,-26,0,266,-281,111,-2,-21,-10,239,-255,-6,-10,-23,-21,106,-214,60,-13,-10,-19,100,-151,-54,clockwise
-50,75,-145,-518,1401,-237,-32,74,-66,-467,1310,219,-9,75,-33,-73,1216,341,18,59,-3,72,937,510,31,54,16,267,662,323,52,18,56,544,202,598,57,-15,59,794,-236,243,52,-54,55,786,-644,137,28,-76,28,760,-882,-318,1,-101,-3,460,-934,-552,-18,-87,-22,275,-827,-900,-37,-73,-45,-85,-597,-1017,-50,-40,-51,-491,-293,-999,-73,-8,-53,-718,40,-809,-53,26,-38,-901,301,-606,-39,65,-26,-1003,478,-303,-25,81,-7,-872,532,106,-6,82,1,-566,491,294,21,71,22,-483,437,599,16,51,30,-153,325,666,12,21,32,-9,212,598,29,5,43,170,57,527,23,-8,37,230,8,409,23,-21,26,392,-143,253,19,-27,11,343,-249,71,12,-32,-1,341,-306,101,-6,-30,-18,163,-275,-14,-11,-25,-20,83,-301,-63,-13,-12,-20,-70,-222,0,-14,-1,-14,-50,-118,-33,clockwise
-50,22,-154,-608,926,-329,-9,54,-79,-393,955,-6,-10,38,-34,-220,1052,109,2,63,-23,-29,944,141,18,52,-14,263,802,164,52,41,32,534,515,573,57,5,47,726,132,556,62,-17,51,854,-316,239,54,-57,48,895,-699,133,23,-86,34,639,-962,-30,-12,-95,5,461,-996,-597,-36,-91,-20,141,-835,-944,-52,-68,-45,-264,-603,-1065,-65,-48,-57,-572,-275,-1116,-60,-7,-54,-681,61,-1057,-49,32,-50,-1114,328,-656,-29,82,-30,-1005,487,-212,-25,84,-18,-843,639,186,-3,87,15,-650,639,319,2,84,24,-567,529,819,19,56,54,6,333,741,16,9,50,140,180,771,35,-7,44,292,-131,525,30,-22,28,270,-274,377,28,-37,28,457,-278,144,7,-39,-6,321,-307,81,-3,-32,-15,169,-320,15,-14,-19,-12,115,-211,-4,-21,-13,-18,73,-137,-203,-16,-5,-20,-82,-150,21,clockwise
-47,18,-157,-1132,1662,26,-10,71,-56,-416,1533,77,4,71,-46,-192,1243,180,34,65,-6,271,1030,313,40,52,13,312,754,436,63,33,61,741,208,442,63,-9,54,860,-365,335,60,-41,59,1012,-786,66,25,-78,21,733,-1101,-82,0,-95,-10,572,-1135,-604,-26,-87,-33,237,-916,-856,-48,-74,-48,-112,-546,-1100,-63,-49,-61,-592,-178,-1075,-67,-11,-51,-845,211,-1009,-49,38,-50,-1283,453,-566,-39,76,-34,-1058,616,-303,-15,103,-17,-924,720,213,-1,93,6,-665,769,377,20,85,30,-481,615,923,39,38,65,-1,383,763,25,11,58,157,183,772,31,-24,77,375,-120,611,21,-35,28,484,-344,268,14,-57,12,340,-500,164,-18,-39,-15,479,-406,-16,-4,-42,-19,89,-412,-103,-20,-21,-41,25,-295,-166,-15,-11,-5,-169,-208,60,-14,14,-9,18,-47,-154,-5,7,-3,-127,-29,101,clockwise
-51,58,-146,-748,2226,557,-28,93,-44,35,1595,407,6,75,-12,225,1350,537,31,60,4,392,1010,596,40,36,25,369,668,630,61,16,63,745,-19,307,73,-33,59,811,-545,199,50,-65,38,785,-947,-157,15,-85,11,507,-1053,-500,-12,-72,-21,457,-967,-866,-34,-70,-41,157,-737,-1105,-56,-47,-62,-419,-367,-1147,-61,-12,-69,-709,-131,-1012,-57,26,-58,-895,52,-730,-62,40,-47,-1107,348,-444,-47,72,-24,-1033,571,16,-34,89,-1,-886,678,321,-10,82,43,-540,698,646,24,47,61,-269,652,790,47,26,71,154,317,662,52,-16,57,228,-41,762,48,-43,45,557,-304,415,27,-53,4,423,-362,298,-1,-37,-14,425,-437,3,-9,-31,-28,206,-357,89,-19,-15,-27,100,-236,-68,-18,-6,-25,-35,-114,-47,-8,3,-8,-61,-78,-40,-5,1,-3,-46,-27,19,-3,-1,2,-59,-14,20,clockwise
-56,18,-161,-150,288,-355,-27,8,-97,-107,785,-152,-24,20,-77,-471,1006,104,-14,56,-29,-183,983,152,12,51,-3,56,785,256,45,48,51,373,625,536,55,34,71,611,179,689,62,-5,79,917,-370,244,61,-52,50,946,-830,92,29,-83,17,785,-1053,-144,-5,-90,-22,416,-1052,-848,-34,-80,-50,122,-881,-1095,-49,-40,-62,-199,-558,-1231,-66,-11,-74,-604,-176,-1139,-73,31,-58,-1059,208,-649,-58,48,-32,-1080,452,-298,-35,74,0,-1094,586,159,-19,63,14,-755,653,337,6,54,52,-518,650,766,36,28,53,10,483,626,37,16,57,215,231,635,37,-20,34,319,-3,440,24,-24,25,231,-226,310,15,-33,1,381,-369,240,-1,-33,-10,212,-391,113,-6,-26,-23,146,-308,-1,-13,-14,-23,95,-186,-19,-4,-5,-13,158,-97,-131,-9,-3,-13,-55,-55,-9,-3,5,-3,5,-32,-67,clockwise
-77,-21,-156,-211,691,-308,-48,23,-86,-325,936,-31,-54,45,-85,-470,942,187,-3,64,-13,-6,919,314,24,51,11,180,765,340,55,51,66,389,465,547,65,16,78,661,11,502,80,-26,91,1006,-409,126,48,-64,38,753,-817,-104,9,-82,-1,628,-1026,-551,-18,-86,-42,245,-953,-926,-38,-56,-66,99,-792,-1299,-50,-34,-86,-596,-486,-1088,-75,1,-81,-634,-41,-1072,-58,41,-58,-1234,351,-344,-51,67,-14,-992,588,-257,-26,82,11,-1076,728,560,-1,80,53,-456,678,461,37,48,73,-371,488,1035,32,14,67,288,216,687,46,-17,52,327,-42,611,26,-45,28,473,-188,383,15,-46,3,361,-276,187,-1,-38,-17,322,-324,4,-5,-26,-19,150,-303,-7,-16,-13,-32,71,-206,-77,-7,-5,-16,-41,-147,-57,-11,-1,-11,-25,-69,-31,-5,4,0,-65,-24,-2,-2,2,0,10,10,-14,clockwise
-100,-12,-131,-43,1076,-314,-60,15,-91,-633,1065,60,-29,43,-62,-435,999,166,-1,59,-27,-66,937,271,31,51,2,31,792,292,62,52,53,377,443,573,65,20,73,818,41,392,61,-21,71,1008,-446,76,41,-60,53,835,-845,-7,-2,-68,5,916,-1040,-638,-21,-77,-31,385,-1001,-873,-39,-54,-56,182,-842,-1225,-46,-27,-65,-308,-479,-1137,-63,-6,-78,-635,-122,-1140,-54,19,-52,-1247,249,-365,-55,48,-36,-1133,551,-314,-30,66,-1,-1291,742,415,-8,66,31,-898,716,543,23,62,63,-533,596,937,32,26,67,100,355,688,49,-1,64,227,98,731,47,-27,39,525,-108,393,27,-42,11,449,-231,289,8,-42,-10,379,-301,120,0,-29,-22,156,-325,74,-13,-19,-23,191,-290,-39,-18,-14,-18,0,-254,23,-14,-2,-8,109,-154,-88,-9,-4,-5,-25,-72,1,-4,0,3,23,-41,-87,clockwise
-61,48,-138,-726,127,132,-51,30,-80,-486,503,289,-44,38,-59,-431,798,379,-14,51,-26,-34,891,311,4,41,-9,-49,776,306,40,41,40,485,729,353,59,22,54,675,303,458,76,-9,67,966,-258,78,62,-41,48,971,-748,39,34,-71,18,964,-986,-467,0,-86,-16,505,-1061,-584,-29,-78,-44,268,-842,-1015,-47,-54,-61,-307,-540,-1210,-70,-35,-86,-744,-190,-1151,-60,21,-58,-1086,146,-823,-50,54,-44,-1214,480,-467,-43,82,-11,-1153,685,118,-21,89,14,-862,715,345,10,84,65,-542,664,841,22,43,64,-51,439,873,41,-3,72,217,195,689,46,-26,51,379,-79,599,38,-48,29,495,-207,347,22,-51,-4,389,-356,109,5,-36,-17,177,-348,118,-16,-16,-27,166,-362,-64,-15,-12,-23,-74,-273,21,-19,1,-19,10,-195,-15,-15,2,-9,-79,-93,55,-7,0,-2,63,-20,-56,clockwise
-71,-3,-141,-201,341,-251,-57,-10,-84,-382,681,-49,-31,9,-53,-401,893,10,-20,35,-44,-268,863,99,4,51,-19,-132,725,206,40,52,38,233,632,493,59,54,60,592,284,463,60,15,65,810,-190,280,54,-26,67,1002,-585,174,26,-65,37,969,-849,-233,-1,-73,-5,614,-961,-593,-23,-83,-33,369,-895,-883,-41,-57,-48,62,-673,-1172,-52,-31,-65,-363,-342,-1180,-49,-3,-53,-970,7,-748,-56,29,-35,-979,279,-488,-41,55,-15,-1225,491,-52,-26,72,3,-1079,596,113,0,71,29,-862,609,825,13,51,42,-220,538,654,39,22,44,-161,405,743,45,0,52,251,191,647,45,-18,33,387,-77,447,36,-39,25,418,-302,320,15,-37,2,420,-415,97,-3,-33,-9,302,-430,25,-17,-23,-29,214,-358,-43,-21,-17,-23,67,-211,-67,-22,-2,-21,75,-88,-149,-12,0,-9,-151,-14,28,clockwise
