AccX1,AccY1,AccZ1,GyrX1,GyrY1,GyrZ1,AccX2,AccY2,AccZ2,GyrX2,GyrY2,GyrZ2,AccX3,AccY3,AccZ3,GyrX3,GyrY3,GyrZ3,AccX4,AccY4,AccZ4,GyrX4,GyrY4,GyrZ4,AccX5,AccY5,AccZ5,GyrX5,GyrY5,GyrZ5,AccX6,AccY6,AccZ6,GyrX6,GyrY6,GyrZ6,AccX7,AccY7,AccZ7,GyrX7,GyrY7,GyrZ7,AccX8,AccY8,AccZ8,GyrX8,GyrY8,GyrZ8,AccX9,AccY9,AccZ9,GyrX9,GyrY9,GyrZ9,AccX10,AccY10,AccZ10,GyrX10,GyrY10,GyrZ10,AccX11,AccY11,AccZ11,GyrX11,GyrY11,GyrZ11,AccX12,AccY12,AccZ12,GyrX12,GyrY12,GyrZ12,AccX13,AccY13,AccZ13,GyrX13,GyrY13,GyrZ13,AccX14,AccY14,AccZ14,GyrX14,GyrY14,GyrZ14,AccX15,AccY15,AccZ15,GyrX15,GyrY15,GyrZ15,AccX16,AccY16,AccZ16,GyrX16,GyrY16,GyrZ16,AccX17,AccY17,AccZ17,GyrX17,GyrY17,GyrZ17,AccX18,AccY18,AccZ18,GyrX18,GyrY18,GyrZ18,AccX19,AccY19,AccZ19,GyrX19,GyrY19,GyrZ19,AccX20,AccY20,AccZ20,GyrX20,GyrY20,GyrZ20,AccX21,AccY21,AccZ21,GyrX21,GyrY21,GyrZ21,AccX22,AccY22,AccZ22,GyrX22,GyrY22,GyrZ22,AccX23,AccY23,AccZ23,GyrX23,GyrY23,GyrZ23,AccX24,AccY24,AccZ24,GyrX24,GyrY24,GyrZ24,AccX25,AccY25,AccZ25,GyrX25,GyrY25,GyrZ25,AccX26,AccY26,AccZ26,GyrX26,GyrY26,GyrZ26,AccX27,AccY27,AccZ27,GyrX27,GyrY27,GyrZ27,AccX28,AccY28,AccZ28,GyrX28,GyrY28,GyrZ28,AccX29,AccY29,AccZ29,GyrX29,GyrY29,GyrZ29,AccX30,AccY30,AccZ30,GyrX30,GyrY30,GyrZ30,Label
204,-15,237,2905,511,2821,103,-89,105,1254,-290,1059,66,-94,52,622,-488,313,28,-82,18,337,-461,-41,5,-62,-1,163,-443,498,-48,-46,-61,-485,-547,-787,-63,-6,-59,-454,-292,-831,-73,31,-58,-491,-69,-677,-64,56,-57,-456,144,-503,-52,72,-36,-396,426,-281,-41,70,-24,-315,646,-80,-16,72,-2,-294,759,126,6,50,24,-142,744,245,31,35,61,42,511,341,42,10,57,162,122,384,45,-6,52,202,-192,393,25,-23,19,267,-376,312,11,-21,2,275,-424,123,-7,-23,-23,170,-317,165,-14,-19,-26,83,-133,23,-15,-12,-18,40,-25,-17,-5,-6,-6,-10,22,-6,0,-2,-4,-7,29,-15,1,1,0,-20,16,-30,2,2,1,-14,13,-17,3,1,-1,-7,6,-4,1,2,3,-7,-9,-11,0,1,0,-3,-5,11,0,0,0,-3,-2,25,0,0,0,2,0,-12,clockwise
-52,124,-116,202,2125,-209,19,105,14,372,1378,206,40,76,42,528,769,513,62,39,60,539,310,583,58,9,52,559,36,289,64,-52,64,504,-595,278,36,-87,22,275,-878,170,7,-105,-18,-16,-905,-98,-33,-93,-48,-212,-735,-448,-55,-62,-65,-317,-508,-653,-58,-20,-61,-429,-249,-666,-67,13,-55,-424,6,-624,-57,40,-34,-383,291,-484,-49,59,-34,-360,510,-443,-36,70,-18,-509,690,-147,-26,73,2,-399,736,7,8,55,21,-313,652,237,21,42,32,-48,504,246,39,17,48,-32,241,414,48,-3,54,244,-97,371,40,-19,35,291,-276,357,19,-21,18,368,-328,71,6,-21,0,182,-376,171,-4,-14,-11,236,-288,28,-18,-14,-21,63,-142,57,-13,-5,-16,40,-59,-41,-7,-2,-14,-37,-10,27,-3,-1,-5,-38,28,18,-3,0,0,-52,37,20,2,-1,0,-14,28,-4,clockwise
-33,127,-90,-524,1666,79,0,103,-19,-200,1117,328,31,90,26,79,781,443,50,56,38,314,441,473,59,17,39,369,156,373,69,-31,55,527,-355,394,59,-64,38,556,-641,198,24,-92,4,414,-799,-121,-15,-90,-24,132,-760,-313,-48,-60,-47,-18,-599,-673,-64,-33,-55,-153,-385,-795,-70,-6,-54,-452,-139,-755,-65,24,-55,-491,92,-635,-47,42,-37,-594,382,-442,-35,52,-24,-627,608,-245,-16,59,-3,-692,709,133,6,51,20,-356,712,161,19,48,33,-366,561,429,36,32,48,20,240,339,40,14,47,143,-34,468,30,-2,35,374,-234,286,14,-15,8,355,-329,248,11,-31,1,412,-299,132,-6,-29,-20,199,-208,84,-10,-20,-18,130,-139,-20,-5,-13,-19,46,-79,-34,-5,-4,-11,-39,-59,36,-5,0,-5,-38,-31,-11,-3,3,-1,-37,-11,-16,-1,0,0,-22,9,19,clockwise
-69,4,-151,831,900,-671,-42,29,-54,-189,1022,-38,-16,72,-2,-128,840,146,17,65,34,255,642,368,34,41,41,447,377,191,66,16,78,404,6,645,77,-17,63,710,-434,339,63,-77,33,779,-768,180,21,-105,-10,316,-900,-194,-13,-98,-40,-81,-833,-531,-43,-67,-54,-221,-645,-757,-64,-37,-58,-408,-347,-965,-69,2,-58,-625,-50,-792,-59,42,-49,-675,170,-561,-55,57,-33,-568,430,-393,-38,66,-15,-667,701,-96,-19,67,1,-543,739,137,0,61,28,-380,675,352,25,37,47,-128,568,426,34,21,48,23,272,463,31,-3,31,208,-140,429,27,-17,31,242,-258,297,20,-28,5,307,-226,270,0,-26,-13,303,-261,90,2,-23,-9,177,-167,37,0,-12,-7,121,-62,-1,-2,-5,-13,76,-102,-26,-4,0,-7,6,-143,2,-1,1,0,4,-95,11,-3,0,-7,2,-100,6,clockwise
-111,42,-102,-18,1553,-322,-55,89,-30,-102,1188,99,-23,88,11,99,841,412,16,66,47,489,529,507,38,38,42,645,241,282,80,-12,59,723,-309,349,80,-65,46,752,-687,217,58,-107,9,460,-826,-91,18,-106,-33,37,-820,-445,-25,-87,-45,-241,-643,-708,-56,-38,-49,-491,-363,-917,-72,4,-69,-659,-134,-814,-69,44,-54,-670,67,-594,-70,60,-46,-590,389,-487,-46,62,-31,-726,668,-79,-28,64,-7,-550,778,38,1,53,30,-462,788,418,23,33,44,-114,679,319,43,20,53,-116,356,510,47,9,53,234,7,346,34,-6,33,278,-197,416,23,-20,20,457,-321,129,9,-23,1,311,-363,261,1,-28,-9,336,-321,74,-11,-23,-19,122,-251,76,-6,-16,-18,87,-205,-2,-11,-9,-16,-44,-121,14,-8,-1,-8,-44,-64,-32,-7,1,-1,-62,-22,6,-4,1,0,-24,-15,-33,clockwise
63,124,76,2424,16,-1034,-1,-72,-40,-520,83,174,12,40,27,330,36,-112,6,-1,6,-64,26,19,8,-2,6,-91,10,-419,-7,-25,-8,-560,3,651,6,28,19,201,-22,-292,-1,-23,-12,-201,-19,104,-1,-1,-2,39,-12,65,-2,3,-2,93,-2,-73,0,1,-2,57,4,-60,0,0,1,14,-7,12,0,0,0,-18,6,10,2,2,2,11,0,-23,0,-1,0,-24,2,33,0,0,0,20,-8,-12,-1,0,-2,-32,10,19,0,0,0,16,-3,-20,0,0,-1,-11,3,1,0,0,0,8,-1,17,0,0,0,-17,9,14,2,0,1,15,-4,-22,0,0,0,-14,8,13,1,0,0,-1,-4,16,0,1,0,7,-2,-17,0,0,0,-1,0,11,0,1,0,-4,-4,-16,0,0,0,10,2,14,-1,0,0,-1,1,-19,0,0,0,-5,1,10,clockwise
-110,76,-95,-115,1229,-108,-62,79,-38,-7,900,162,-13,80,12,160,768,369,20,64,28,463,504,426,41,28,40,503,245,342,73,-11,58,666,-178,333,78,-51,48,625,-510,238,52,-85,17,527,-764,-141,12,-101,-17,127,-811,-280,-30,-79,-43,-122,-669,-702,-47,-51,-54,-315,-478,-741,-66,-19,-58,-433,-220,-783,-64,11,-60,-631,-2,-591,-57,37,-44,-603,233,-443,-47,51,-34,-624,441,-248,-43,63,-17,-624,645,-40,-20,66,3,-602,724,209,2,54,29,-397,681,267,16,46,40,-236,592,356,39,24,51,28,309,384,50,4,52,164,-15,449,42,-11,37,405,-249,319,23,-27,11,412,-308,172,13,-34,0,408,-372,179,-7,-28,-19,229,-311,77,-13,-18,-22,180,-213,-53,-13,-16,-23,13,-108,44,-9,0,-12,14,-79,-59,-5,1,-8,-60,-52,44,0,3,0,-8,-18,-5,clockwise
-105,34,-111,160,1106,-89,-61,71,-44,-37,981,194,-26,66,-7,214,872,328,9,54,21,288,661,451,25,31,35,393,403,316,65,-1,63,447,-31,408,75,-46,59,532,-425,188,62,-74,37,415,-743,46,27,-91,7,275,-895,-294,-6,-81,-24,10,-823,-519,-36,-50,-38,-81,-630,-705,-55,-22,-58,-197,-422,-799,-63,2,-57,-464,-154,-685,-65,32,-57,-534,112,-542,-48,47,-43,-508,364,-385,-41,54,-34,-586,642,-241,-22,60,0,-637,838,113,2,59,21,-405,790,216,21,44,46,-263,658,425,27,28,45,-98,392,403,44,10,54,52,38,511,34,-9,28,248,-216,403,24,-25,18,317,-322,283,16,-29,-1,303,-338,195,6,-26,-10,219,-303,60,-6,-22,-20,167,-209,-11,-5,-13,-10,74,-150,-17,-10,-1,-16,-8,-91,-36,-8,2,-11,-10,-64,-29,-4,0,-2,-18,-26,3,clockwise
-83,132,-23,295,1920,462,-10,92,15,417,1081,550,14,67,37,547,699,557,40,35,52,585,365,528,40,6,41,597,101,364,69,-52,45,504,-497,235,47,-76,28,350,-656,-40,24,-90,1,128,-727,-264,-12,-79,-27,-82,-645,-587,-31,-54,-39,-274,-483,-682,-55,-18,-46,-309,-261,-730,-57,7,-50,-364,-81,-695,-55,27,-46,-567,54,-507,-50,42,-34,-508,225,-304,-42,46,-21,-535,414,-112,-26,56,-6,-543,552,-12,-10,52,11,-466,585,293,7,46,28,-183,535,268,14,28,26,-61,424,340,31,15,38,41,194,375,28,4,22,203,38,362,26,-12,16,239,-132,303,22,-19,4,265,-165,187,22,-18,4,139,-212,206,7,-13,-10,186,-188,37,4,-19,-3,74,-196,78,0,-8,-5,107,-137,-60,-5,-7,-7,36,-107,2,-5,-1,-8,58,-93,-59,-7,-2,-6,-23,-54,9,clockwise
-26,173,-31,-124,2507,674,10,119,28,472,1252,645,37,78,45,699,714,630,47,33,38,700,381,562,47,-1,35,617,128,413,61,-54,39,635,-586,159,43,-83,18,429,-736,-121,13,-94,-13,128,-774,-369,-17,-74,-26,-101,-700,-670,-36,-45,-41,-287,-542,-700,-62,-21,-47,-341,-314,-791,-62,4,-49,-570,-88,-625,-66,29,-39,-587,108,-487,-54,42,-30,-580,325,-241,-43,49,-20,-543,508,-161,-22,53,-2,-570,649,134,-7,50,11,-396,635,193,15,44,23,-263,562,289,30,30,34,-125,431,381,33,20,34,23,195,433,39,5,35,219,-47,396,34,-11,20,322,-185,288,25,-22,11,307,-261,265,8,-25,-4,305,-315,149,3,-23,-6,227,-264,17,-8,-17,-17,142,-180,23,-11,-8,-15,36,-109,-12,-8,-3,-11,23,-54,-54,-2,2,-5,-54,-46,10,-1,0,-3,-27,-33,-21,clockwise
-88,129,-43,-2,2104,713,-13,77,29,169,1021,684,2,65,33,373,662,600,20,37,39,400,413,536,25,16,34,448,254,398,55,-33,43,554,-321,168,45,-55,18,555,-501,-139,26,-82,0,271,-646,-269,0,-77,-19,88,-684,-508,-21,-64,-28,-116,-646,-641,-43,-38,-37,-275,-467,-665,-62,-11,-44,-461,-212,-561,-57,12,-40,-491,27,-437,-46,27,-32,-546,232,-276,-41,35,-21,-443,392,-195,-26,42,-9,-562,439,-36,-4,46,8,-408,468,77,11,44,13,-263,432,228,18,37,23,-57,406,95,26,29,14,-71,317,317,31,24,20,106,184,259,30,7,21,117,68,408,21,0,14,192,-13,269,20,-12,11,170,-171,274,15,-15,11,197,-219,254,4,-21,-3,208,-191,108,0,-19,-11,139,-170,2,-1,-13,-6,92,-153,-32,-10,-6,-13,16,-87,-77,-5,-1,-8,-21,-82,-79,clockwise
-81,53,-124,-226,1109,115,-29,47,-34,95,1034,178,-16,46,-14,32,805,364,1,39,13,193,624,387,7,34,26,293,449,374,38,11,60,516,89,316,43,-15,51,529,-259,349,45,-44,41,537,-513,43,35,-63,16,395,-688,-157,18,-77,-7,241,-736,-356,-9,-71,-23,5,-655,-642,-30,-53,-34,-232,-520,-644,-44,-25,-35,-279,-324,-669,-53,-5,-38,-327,-122,-579,-51,9,-41,-552,-14,-449,-39,28,-31,-550,151,-252,-32,38,-21,-485,302,-169,-23,41,-17,-436,467,-115,-8,46,0,-468,557,76,9,50,17,-218,619,100,15,46,23,-146,522,234,24,35,23,-43,380,303,29,22,26,9,189,425,33,5,14,145,-12,427,28,-8,15,147,-122,414,18,-17,0,197,-170,347,17,-22,2,200,-185,247,10,-23,-3,167,-196,95,-3,-19,1,116,-170,41,-8,-12,-6,81,-156,-68,clockwise
-76,46,-133,234,583,-231,-47,27,-73,49,625,-35,-34,39,-53,-22,698,112,-11,42,-18,11,663,234,2,43,-2,194,560,207,33,29,50,284,375,416,47,17,61,492,67,429,63,-28,64,647,-358,322,52,-55,41,601,-734,5,26,-77,20,413,-886,-182,-3,-77,-14,195,-863,-466,-23,-65,-27,-22,-702,-730,-48,-32,-37,-267,-464,-689,-63,-10,-39,-296,-194,-758,-59,7,-42,-493,-47,-470,-47,16,-36,-589,63,-339,-41,24,-27,-570,192,-121,-28,31,-18,-507,326,-165,-14,39,-9,-523,474,28,0,44,7,-356,545,102,9,43,12,-202,556,116,22,38,18,-172,488,182,23,34,19,-33,394,327,41,16,33,62,196,410,33,0,14,209,93,380,27,-11,16,224,-98,371,22,-20,7,290,-190,254,12,-26,1,173,-256,195,-3,-23,-13,173,-252,28,-2,-16,-3,51,-271,69,clockwise
-65,85,-113,50,1544,-127,-38,66,-55,182,1170,112,-17,57,-12,211,917,332,7,49,14,344,698,404,16,32,26,397,472,314,44,-1,54,501,5,335,57,-27,54,508,-382,289,48,-55,37,432,-687,30,26,-70,13,328,-881,-209,1,-74,-12,90,-875,-476,-23,-56,-20,-30,-760,-689,-45,-38,-31,-165,-506,-695,-54,-13,-38,-308,-274,-764,-59,0,-42,-444,-34,-550,-49,19,-31,-467,114,-430,-52,29,-31,-550,244,-289,-36,38,-16,-588,351,-118,-26,42,-7,-497,514,32,-2,50,7,-458,616,266,13,48,11,-348,593,262,34,31,27,-190,522,363,31,25,25,-34,339,423,45,8,34,146,72,432,36,-9,25,227,-166,375,21,-19,19,324,-265,238,11,-16,1,281,-307,97,6,-20,-6,196,-284,131,-5,-13,-15,110,-202,-3,-9,-8,-16,56,-122,-34,-5,-4,-14,-3,-76,-16,clockwise
-86,82,-134,-501,1340,183,-18,64,-32,43,1036,309,-15,48,-17,75,820,393,1,48,7,241,665,382,10,33,15,361,490,339,35,0,53,556,161,359,34,-21,47,497,-156,303,50,-46,48,544,-515,18,32,-71,26,339,-744,-98,12,-75,5,172,-800,-353,-6,-61,-11,46,-766,-564,-26,-50,-28,-24,-613,-760,-47,-22,-40,-183,-323,-682,-53,-2,-39,-243,-88,-698,-55,16,-37,-473,36,-525,-41,27,-31,-441,185,-363,-40,35,-28,-583,352,-165,-32,43,-17,-618,483,-5,-9,42,1,-600,535,271,8,45,14,-382,553,247,16,34,22,-360,458,335,30,28,25,-176,362,381,36,17,35,10,194,422,35,4,23,181,15,297,26,-10,13,244,-51,228,14,-15,3,286,-176,205,13,-17,7,271,-250,68,4,-21,-7,201,-269,84,-6,-12,-15,125,-225,0,-4,-9,-8,57,-219,4,clockwise
-73,55,-133,-514,1536,126,-27,55,-60,25,1268,167,-19,56,-19,-37,919,339,0,51,11,216,679,361,17,39,25,399,444,351,46,11,56,712,-2,241,48,-21,52,637,-394,278,44,-48,38,659,-616,-18,27,-66,13,491,-719,-195,1,-77,-11,166,-716,-431,-22,-65,-24,-80,-674,-605,-39,-48,-35,-225,-523,-675,-44,-25,-41,-446,-308,-682,-53,-8,-40,-456,-133,-550,-55,14,-33,-537,72,-452,-52,30,-24,-563,271,-333,-37,43,-10,-638,400,66,-27,43,6,-423,430,20,-2,45,12,-474,451,292,10,38,17,-263,445,239,28,27,15,-195,371,454,33,17,18,-38,315,308,34,10,16,60,197,344,34,0,17,137,45,219,32,-3,11,217,-138,201,21,-11,13,309,-205,137,7,-12,3,268,-271,107,4,-13,-6,242,-254,47,-9,-14,-15,147,-192,29,-8,-12,-11,60,-119,-33,clockwise
-83,41,-130,-20,1139,-234,-24,26,-52,-152,972,19,-7,47,-17,75,859,112,0,38,0,98,649,280,13,40,16,227,476,241,41,19,55,432,148,448,42,9,57,679,-135,270,40,-32,43,611,-452,274,36,-50,29,585,-604,-15,15,-76,6,405,-658,-267,-5,-70,-11,75,-635,-522,-24,-63,-24,-203,-566,-592,-38,-39,-28,-332,-376,-657,-47,-23,-25,-435,-195,-628,-52,-2,-28,-460,-76,-482,-52,6,-28,-471,59,-383,-42,17,-24,-439,210,-251,-34,24,-17,-481,299,-97,-20,33,-13,-505,367,-43,-2,43,0,-540,398,152,10,45,13,-331,408,169,19,38,12,-288,344,306,28,34,17,-74,331,271,27,28,15,62,198,383,25,15,23,195,122,316,26,6,15,222,77,362,19,-1,10,297,-4,161,16,-12,4,212,-166,251,8,-18,-2,199,-178,208,10,-23,-11,158,-182,33,clockwise
-95,36,-120,-160,694,-241,-61,39,-68,-86,843,-72,-31,44,-25,-42,832,126,-28,52,-8,18,700,239,0,53,25,189,468,281,46,36,58,605,154,369,67,-2,56,713,-285,398,68,-36,37,746,-683,129,61,-77,27,676,-870,-30,17,-94,-16,417,-849,-400,-25,-88,-30,-18,-673,-663,-55,-57,-35,-265,-418,-846,-73,-27,-39,-409,-170,-904,-73,2,-47,-620,10,-685,-59,21,-32,-687,99,-559,-48,34,-31,-698,255,-206,-25,42,-8,-698,335,-107,-13,43,0,-592,416,202,2,50,18,-385,438,310,14,44,19,-199,492,325,21,32,27,-174,362,476,21,22,13,54,284,340,26,8,21,116,143,398,32,-6,20,256,-19,269,23,-17,14,265,-140,277,24,-18,7,344,-236,86,12,-19,2,218,-292,67,2,-12,-6,179,-279,-33,-9,-7,-16,46,-204,13,-6,-3,-14,13,-172,-50,clockwise
-71,73,-118,-649,1797,100,-38,64,-57,-53,1339,221,-17,52,-22,-14,994,424,3,55,8,144,704,431,19,40,21,332,460,404,51,7,51,618,-58,350,62,-26,54,656,-426,342,52,-54,44,688,-649,-69,32,-80,17,504,-766,-218,0,-84,-10,244,-748,-492,-23,-68,-26,-7,-646,-752,-49,-46,-43,-271,-466,-792,-56,-18,-52,-468,-253,-733,-56,6,-52,-546,-16,-681,-54,27,-44,-703,223,-450,-43,42,-29,-743,464,-246,-21,60,-9,-679,648,-33,-4,65,12,-580,702,192,10,59,25,-372,634,348,35,43,42,-140,440,480,36,27,36,45,195,485,32,0,33,215,-57,518,32,-19,27,324,-227,308,17,-27,15,326,-217,251,7,-27,-3,290,-256,134,1,-24,-4,197,-229,84,-6,-14,-10,81,-185,-25,-10,-3,-17,13,-125,-46,-3,-1,-12,-59,-173,-6,-5,1,-5,-20,-106,35,clockwise
-82,145,-10,447,2410,1078,-9,94,31,255,1189,938,26,49,49,516,704,719,33,21,44,605,390,499,39,-5,33,605,110,357,56,-53,30,576,-562,43,36,-75,7,472,-701,-271,-2,-72,-17,195,-720,-504,-22,-61,-29,-62,-639,-627,-50,-42,-35,-262,-410,-699,-60,-20,-38,-434,-207,-610,-63,-1,-37,-466,-17,-542,-50,12,-32,-571,114,-396,-42,22,-24,-542,268,-263,-17,34,-7,-537,356,-132,-11,42,1,-419,458,-28,11,51,13,-375,518,123,21,52,16,-212,498,248,23,44,20,-148,377,423,30,32,23,-11,242,414,32,12,18,41,79,458,23,-8,21,161,-86,386,22,-22,16,276,-182,291,21,-27,9,233,-210,176,0,-21,-8,195,-236,-36,1,-12,-4,115,-205,-17,-5,-3,-15,81,-170,-81,-7,0,-11,-8,-119,-3,-7,3,-11,16,-102,-45,0,0,-5,1,-60,24,clockwise
-101,19,-117,452,874,-416,-46,44,-76,-34,959,48,-29,51,-42,-16,1002,259,-3,55,-2,180,806,376,17,45,20,280,576,282,54,23,62,371,214,580,62,-5,69,540,-214,468,64,-48,62,622,-671,157,38,-73,28,504,-860,-69,5,-84,-5,280,-876,-396,-22,-67,-30,58,-726,-599,-48,-54,-40,-115,-490,-780,-67,-23,-45,-301,-217,-839,-61,-6,-44,-466,-15,-635,-58,12,-36,-580,154,-484,-43,19,-22,-586,275,-276,-29,28,-15,-575,388,-161,-10,39,0,-578,441,-1,3,45,16,-407,456,240,15,39,24,-246,400,274,19,37,22,-159,322,287,25,27,24,-50,189,374,31,14,26,101,19,329,21,-1,15,91,-35,281,18,-4,18,270,-61,175,15,-13,0,221,-96,165,11,-9,1,192,-154,108,2,-10,-10,182,-118,63,2,-9,-10,128,-155,-3,3,-7,-17,-8,-173,49,clockwise
-98,19,-131,-195,933,-489,-37,51,-59,107,953,-125,-28,51,-24,-81,858,235,-12,48,8,101,589,342,8,46,23,137,358,280,50,30,62,432,23,409,50,-3,55,453,-280,525,58,-37,43,686,-567,117,47,-63,11,576,-683,-24,14,-86,-18,385,-699,-355,-18,-80,-40,31,-618,-475,-36,-63,-41,-119,-502,-676,-61,-40,-50,-365,-299,-728,-63,-14,-43,-591,-41,-614,-59,14,-35,-558,235,-500,-48,33,-17,-575,446,-386,-31,48,-12,-588,549,-287,-6,60,8,-616,577,69,5,61,20,-360,512,161,26,47,28,-246,401,377,32,34,22,-92,300,336,31,15,26,26,168,459,35,0,26,207,35,331,22,-11,10,222,-14,296,19,-15,12,285,-64,125,5,-16,3,298,-192,109,4,-16,-1,185,-253,67,-3,-12,-10,163,-240,31,-1,-10,-6,91,-271,-40,-8,-5,-11,9,-274,4,clockwise
-99,55,-108,-2,1717,-72,-50,62,-51,-77,1281,280,-17,58,-8,118,939,419,7,56,21,206,664,507,18,35,30,411,421,314,50,5,54,528,-62,441,55,-28,56,654,-411,172,48,-57,27,562,-640,-37,24,-82,-1,388,-758,-413,-3,-80,-26,89,-735,-562,-26,-63,-34,-155,-641,-755,-48,-39,-42,-386,-435,-757,-62,-13,-34,-457,-209,-667,-59,10,-34,-524,17,-502,-55,29,-23,-571,234,-342,-40,39,-16,-537,417,-111,-22,46,-5,-534,484,0,1,46,5,-426,513,200,4,42,14,-374,502,299,25,35,23,-172,390,302,34,25,24,-121,223,498,35,11,19,46,104,281,19,1,22,158,42,320,26,-4,23,352,-48,128,17,-10,1,253,-158,235,1,-17,-2,287,-193,161,1,-15,-5,240,-193,-25,4,-14,-16,96,-220,45,-2,-10,-21,-29,-212,76,-5,-9,-7,-16,-110,6,clockwise
-100,55,-113,118,1097,-79,-68,57,-62,-189,1053,281,-31,53,-10,84,880,434,-3,55,18,172,654,530,17,40,29,378,433,364,49,6,55,473,115,502,62,-25,60,684,-258,253,56,-50,38,637,-565,5,33,-83,7,514,-730,-378,-1,-85,-16,228,-744,-645,-21,-68,-31,-42,-691,-841,-42,-44,-41,-332,-517,-857,-55,-19,-48,-502,-309,-781,-56,6,-46,-625,-80,-646,-50,30,-43,-741,156,-362,-41,48,-27,-668,392,-105,-21,53,-14,-609,550,56,-10,54,7,-475,637,178,13,54,29,-323,599,335,27,36,32,-129,493,355,30,24,29,-56,310,480,37,11,34,160,72,305,29,-3,19,182,6,340,15,-11,14,312,-75,203,14,-13,6,272,-221,249,7,-19,3,279,-316,175,-2,-18,-9,208,-277,63,1,-15,-12,106,-337,1,-3,-12,-20,-4,-282,50,-8,-8,-11,-22,-166,8,clockwise
-96,67,-116,219,1715,-249,-38,75,-40,39,1387,247,-2,71,6,211,1065,498,12,59,34,301,702,611,30,35,41,463,396,335,58,-4,59,465,-132,486,62,-34,56,622,-539,217,42,-67,26,496,-792,-20,22,-81,-8,404,-842,-481,-15,-80,-37,126,-744,-701,-34,-52,-40,-121,-580,-945,-61,-30,-59,-315,-344,-848,-66,-3,-54,-571,-92,-731,-68,20,-48,-737,191,-574,-47,39,-23,-796,433,-236,-38,54,-14,-702,611,-122,-5,58,15,-639,678,220,10,55,23,-336,646,354,35,38,38,-158,497,400,38,30,33,-6,271,511,41,1,44,208,62,451,24,-15,22,375,14,303,30,-25,13,279,-168,262,6,-18,1,273,-229,166,0,-22,0,239,-247,98,-3,-11,-18,105,-226,-86,0,-5,-12,-42,-308,68,-10,0,-8,45,-192,-1,-2,-5,-7,-22,-136,0,-3,0,-8,-17,-75,19,clockwise
-58,145,6,355,2613,1043,-11,89,35,296,1234,921,24,55,52,573,607,760,36,22,42,591,295,586,38,2,36,622,39,405,44,-45,28,627,-653,42,25,-64,8,555,-723,-328,-6,-70,-17,239,-652,-569,-28,-58,-30,29,-578,-800,-51,-45,-47,-298,-411,-824,-55,-23,-47,-504,-198,-751,-51,-4,-44,-601,-36,-615,-43,21,-37,-697,152,-354,-37,32,-27,-661,368,-177,-19,44,-6,-611,544,68,-2,52,10,-439,582,96,15,49,20,-337,573,376,26,36,23,-144,478,290,31,29,27,-51,319,478,33,15,23,124,162,369,25,0,15,134,25,379,23,-9,21,252,-85,298,11,-16,8,302,-181,199,11,-22,2,214,-267,135,2,-17,-3,191,-290,72,0,-13,-8,124,-263,6,-9,-8,-19,22,-206,-72,-5,-5,-10,-51,-157,38,-7,1,-7,-5,-74,-56,-4,0,-3,-13,-31,0,clockwise
-80,62,-124,142,1684,-126,-36,53,-50,-43,1371,261,-16,64,-13,113,1108,434,4,65,30,290,746,556,28,44,37,511,421,387,63,1,61,598,-188,494,65,-26,54,753,-637,179,50,-66,28,717,-925,-130,24,-92,-15,386,-935,-472,-16,-87,-34,75,-774,-797,-49,-60,-44,-251,-492,-922,-66,-27,-49,-450,-239,-976,-67,-4,-47,-717,2,-656,-62,21,-31,-727,154,-511,-46,36,-29,-727,329,-165,-27,49,-11,-690,489,-30,-9,46,4,-550,605,148,11,52,23,-403,618,379,27,45,28,-185,548,303,37,31,36,-114,365,513,32,15,24,103,113,422,23,-1,22,133,-32,422,25,-13,27,335,-66,289,7,-19,-5,329,-125,243,6,-26,-4,231,-180,182,3,-20,-1,224,-120,38,5,-15,-8,119,-157,-36,-6,-6,-18,-5,-242,-62,0,-7,1,-28,-218,41,-5,2,-4,-5,-162,-69,clockwise
-106,73,-100,309,1714,73,-41,62,-14,148,1166,431,-25,71,2,345,848,516,3,45,28,447,591,581,25,29,32,584,370,363,59,-12,57,591,-183,435,58,-39,40,651,-559,58,49,-76,25,501,-758,-184,19,-79,-11,259,-792,-547,-17,-77,-28,-82,-708,-791,-40,-51,-43,-257,-489,-911,-61,-21,-52,-428,-192,-892,-62,0,-50,-611,14,-657,-57,24,-34,-681,136,-436,-47,39,-25,-667,287,-189,-31,47,-15,-610,451,-28,-11,46,4,-608,565,223,2,58,20,-343,585,262,23,43,26,-213,559,481,33,29,29,-92,428,374,33,19,36,44,191,534,34,0,29,218,-33,292,30,-18,19,211,-146,371,16,-22,9,286,-198,175,7,-19,-3,274,-279,87,2,-20,-11,204,-254,59,-5,-10,-17,113,-213,-32,-6,-7,-16,53,-188,-23,-6,-2,-13,0,-175,13,-2,-2,-5,2,-100,3,clockwise
-94,51,-115,-4,1110,-275,-54,46,-66,-116,1050,58,-22,58,-17,99,986,276,-9,54,5,95,734,477,22,43,30,390,470,354,59,13,54,543,21,486,71,-16,60,678,-439,286,59,-54,32,644,-853,124,41,-79,7,588,-955,-333,-6,-85,-32,214,-891,-634,-40,-67,-40,-83,-650,-848,-63,-38,-52,-340,-340,-937,-71,-6,-57,-545,-61,-857,-66,21,-39,-731,185,-603,-53,37,-36,-712,421,-344,-31,54,-18,-746,620,-62,-15,54,2,-563,710,99,11,52,26,-477,732,469,24,41,28,-243,616,438,41,28,46,-137,416,556,41,3,42,138,99,464,44,-8,36,236,-102,358,24,-23,22,330,-240,244,19,-28,7,368,-318,136,1,-28,-9,238,-365,53,-7,-16,-11,145,-295,-10,-15,-11,-19,44,-240,2,-12,-4,-16,8,-165,-55,-12,0,-10,-61,-109,15,-3,4,-1,22,-30,-25,clockwise
-21,149,-40,-294,1933,1388,4,108,20,402,1067,888,30,62,45,605,623,770,37,28,45,710,262,579,37,-3,32,576,24,603,43,-55,38,627,-556,-55,34,-80,17,406,-708,-198,1,-82,-14,111,-742,-514,-19,-70,-33,-187,-632,-645,-42,-41,-37,-299,-431,-771,-55,-10,-48,-393,-194,-792,-64,8,-44,-526,16,-576,-56,30,-39,-573,243,-400,-47,43,-22,-598,416,-168,-30,52,-6,-524,484,84,-14,46,10,-478,513,292,-1,45,24,-303,470,331,16,29,36,-83,355,441,28,11,32,21,253,389,25,0,14,93,168,291,26,-7,21,119,38,255,31,-9,5,102,-59,118,14,-12,5,83,-93,139,4,-4,-2,176,-113,-43,12,-8,6,119,-156,66,0,-3,-11,102,-147,-9,-1,-9,-2,151,-130,0,0,-2,-13,55,-119,-81,0,-4,-6,22,-115,21,-6,-2,-10,7,-79,60,clockwise
-92,42,-125,380,1528,-341,-54,75,-43,-100,1300,256,-29,87,28,140,914,533,28,65,47,549,520,679,50,34,36,695,246,329,83,-7,61,611,-276,460,87,-49,49,749,-711,100,67,-98,-1,557,-886,-176,11,-105,-37,63,-870,-660,-31,-87,-46,-359,-724,-889,-56,-44,-45,-422,-478,-957,-75,-11,-65,-597,-225,-877,-71,33,-53,-776,9,-582,-68,54,-44,-719,363,-271,-51,65,-20,-635,592,-63,-41,66,-11,-599,728,108,-16,63,32,-446,813,333,6,47,49,-69,750,415,31,16,59,101,459,488,39,3,45,126,154,449,46,-13,39,194,-130,374,37,-28,17,301,-287,257,21,-33,-4,198,-360,161,7,-16,-9,124,-339,73,-5,-14,-15,170,-277,5,-11,-7,-16,137,-170,-66,-11,-3,-17,44,-142,-5,-5,-1,-6,9,-104,3,-3,-1,-8,-7,-79,7,-1,-1,-1,0,-42,29,clockwise
-106,34,-120,669,1140,-579,-59,45,-74,104,1187,-72,-37,80,-33,132,1135,225,7,65,3,236,937,481,45,52,31,555,603,333,83,19,57,538,95,594,100,-19,73,669,-482,370,86,-68,53,741,-888,141,41,-91,8,549,-1115,-327,-18,-99,-32,70,-1025,-692,-47,-73,-42,-166,-756,-932,-87,-40,-67,-343,-356,-1068,-77,-7,-62,-688,-58,-877,-81,24,-48,-793,214,-620,-64,45,-30,-817,475,-323,-45,61,-18,-818,661,-59,-14,66,16,-649,728,256,-3,50,35,-441,641,422,26,42,53,-151,512,451,39,19,49,17,262,552,34,1,43,160,32,483,33,-14,25,145,-187,411,22,-19,9,216,-260,250,5,-23,0,193,-210,200,0,-15,-8,182,-205,97,-2,-14,-10,162,-197,37,-9,-8,-15,134,-113,-1,-6,-3,-15,108,-55,-77,0,-5,-15,7,-100,16,-4,-2,-8,-3,-71,-33,clockwise
-88,93,-96,455,2045,50,-41,77,-25,317,1469,346,-3,62,15,288,1005,550,25,58,43,570,640,508,40,26,41,645,327,331,73,-17,60,603,-317,299,70,-49,49,645,-757,152,42,-78,9,487,-940,-326,13,-96,-26,71,-934,-524,-22,-77,-42,-221,-782,-738,-49,-49,-44,-351,-514,-880,-67,-21,-61,-487,-192,-792,-62,8,-45,-598,54,-642,-65,32,-37,-621,290,-431,-47,48,-22,-589,476,-146,-40,55,-13,-627,574,9,-13,60,14,-623,633,222,0,59,25,-421,613,389,19,43,36,-199,474,477,23,23,39,-117,327,514,33,13,31,109,100,443,33,-12,26,233,-105,452,21,-24,15,304,-190,243,17,-29,5,281,-225,135,7,-21,-9,271,-293,56,0,-22,-8,185,-258,-6,-6,-8,-15,109,-188,-69,-4,-3,-15,59,-179,-71,-8,3,-13,15,-153,-9,-6,-1,-9,26,-87,-5,clockwise
-57,71,-128,-269,1929,-212,0,88,-54,13,1457,184,6,52,16,114,1110,453,12,44,38,224,707,493,27,33,45,424,397,255,49,5,66,634,-163,314,44,-32,56,682,-557,221,39,-52,14,581,-834,-85,25,-70,-15,396,-855,-400,-6,-76,-35,116,-746,-606,-28,-67,-37,-188,-571,-758,-53,-46,-33,-435,-336,-688,-62,-15,-29,-456,-83,-638,-58,10,-21,-574,108,-522,-50,29,-20,-628,280,-293,-37,45,-13,-515,395,-47,-14,47,-8,-543,468,74,-5,49,5,-466,516,278,9,41,9,-365,499,424,26,33,26,-206,412,332,30,17,32,-138,254,475,28,10,30,55,77,282,37,-4,24,87,-130,334,22,-8,19,263,-170,111,10,-13,2,316,-221,52,6,-11,-10,232,-218,61,0,-10,-14,235,-194,51,-7,-8,-18,188,-109,-35,-2,-8,-16,86,-120,-40,-2,-5,-13,-37,-109,75,clockwise
-107,49,-121,171,1320,-178,-63,45,-51,49,1247,93,-27,65,-15,91,1020,338,0,55,8,241,701,462,20,46,26,379,441,374,66,15,59,589,-6,403,72,-22,47,607,-445,315,62,-67,40,603,-721,17,34,-83,12,446,-817,-270,-1,-95,-14,124,-775,-597,-40,-72,-30,-231,-605,-706,-57,-40,-27,-348,-383,-775,-72,-10,-39,-511,-188,-657,-54,6,-24,-480,21,-525,-54,23,-22,-444,132,-351,-37,28,-19,-430,236,-261,-23,38,-14,-413,347,40,-4,42,-9,-397,466,41,-6,45,-4,-447,517,287,19,39,9,-367,533,360,22,31,23,-191,456,316,36,17,31,-77,261,367,28,11,26,66,94,333,32,-2,32,184,-82,255,15,-1,10,233,-141,90,12,-6,5,187,-218,138,4,-8,-5,204,-180,124,5,-12,-5,168,-225,67,-3,-9,-18,111,-187,8,1,-10,-8,61,-191,70,clockwise
-95,59,-122,-30,1728,-477,-39,66,-57,4,1299,50,-4,59,-4,268,985,325,11,47,15,325,683,452,29,29,29,427,406,231,55,4,53,513,-86,466,57,-32,51,615,-435,300,41,-58,27,491,-692,46,22,-75,8,394,-792,-292,-10,-75,-16,106,-725,-505,-31,-62,-16,69,-607,-784,-48,-44,-25,-235,-402,-815,-61,-26,-36,-577,-221,-736,-52,6,-28,-531,-40,-520,-46,18,-32,-448,147,-556,-34,35,-29,-671,320,-223,-18,52,-16,-541,392,131,-4,53,2,-315,457,196,-4,43,10,-343,447,228,10,37,21,-312,394,472,13,22,21,-45,293,318,21,9,19,-38,201,382,27,7,10,62,120,298,28,-3,3,46,54,325,23,-4,15,145,-27,116,19,-6,12,139,-56,172,8,-5,3,222,-182,105,3,-12,4,206,-234,67,-3,-10,-5,189,-220,-7,-4,-7,-17,101,-211,-57,clockwise
-36,159,-3,491,2865,1306,17,92,45,539,1353,928,30,58,43,742,710,664,38,18,40,753,328,466,39,-5,36,680,59,408,45,-53,28,599,-698,-83,22,-73,3,383,-767,-390,0,-80,-12,72,-716,-550,-24,-63,-25,-195,-584,-717,-44,-41,-35,-375,-396,-747,-54,-21,-43,-456,-186,-657,-51,0,-37,-496,0,-529,-49,19,-32,-522,134,-359,-42,27,-30,-494,339,-185,-25,45,-17,-569,422,-17,-13,56,0,-540,498,158,-3,52,9,-402,481,346,8,43,14,-335,478,316,14,39,26,-247,301,384,20,22,22,-77,253,406,29,3,25,70,115,340,24,-5,21,192,-50,237,29,-9,25,308,-136,167,32,-15,7,330,-237,136,10,-16,-4,365,-318,51,0,-14,-11,239,-312,30,-5,-8,-20,109,-223,12,-10,-5,-25,40,-211,47,-16,-4,-17,-5,-105,11,-4,-3,-7,-24,-39,-3,clockwise
-66,68,-127,109,1986,-366,-26,71,-41,-47,1308,205,1,62,-12,113,1023,401,11,64,4,113,720,502,23,41,29,323,525,268,53,11,65,495,-8,546,60,-27,54,612,-383,317,50,-56,39,589,-727,53,31,-88,18,585,-843,-284,2,-85,-20,256,-878,-635,-27,-68,-40,49,-777,-768,-58,-44,-52,-259,-486,-840,-73,-11,-60,-388,-165,-875,-73,9,-54,-716,120,-551,-63,31,-29,-671,366,-455,-47,40,-21,-836,533,-37,-20,49,9,-647,641,-103,0,45,22,-668,667,371,24,54,43,-337,517,303,36,37,38,-203,252,447,40,21,50,141,43,319,25,5,23,297,-135,383,27,-8,22,418,-254,244,9,-23,-4,388,-290,248,4,-25,-11,306,-202,139,-3,-19,-27,127,-145,57,4,-12,-14,20,-119,98,-3,-6,-16,-20,-109,26,0,-2,-4,-25,-58,39,0,0,-4,-20,-36,2,clockwise
-67,147,-37,38,2362,646,2,110,19,213,1151,777,15,71,45,309,666,801,29,40,46,483,404,648,33,15,42,548,227,375,57,-38,44,741,-443,105,34,-73,14,583,-577,-136,15,-85,-18,379,-676,-493,-12,-79,-39,111,-667,-702,-35,-65,-50,-128,-573,-908,-60,-40,-55,-514,-320,-767,-56,-7,-44,-523,-95,-725,-55,19,-35,-608,211,-518,-42,44,-20,-731,414,-354,-22,59,-5,-721,548,0,-10,66,0,-592,639,92,6,64,21,-499,702,328,28,55,29,-379,639,532,45,34,51,-52,429,590,46,12,46,196,92,474,41,-8,43,326,-215,380,32,-21,18,416,-401,233,11,-32,0,505,-547,161,-9,-30,-25,358,-491,16,-18,-24,-32,213,-295,-20,-13,-11,-24,80,-131,-106,-17,-7,-15,-8,-84,12,-7,-2,0,-58,-22,4,-2,0,4,-67,2,-26,-2,0,4,-84,15,40,clockwise
-31,139,-78,-258,1634,787,-10,91,-11,172,1072,671,12,78,30,223,709,652,35,44,33,465,436,606,34,14,33,441,230,553,52,-38,54,568,-300,244,49,-66,38,477,-602,1,27,-92,2,378,-735,-284,-5,-87,-18,85,-746,-527,-26,-65,-39,-103,-647,-726,-50,-31,-50,-172,-436,-830,-65,-4,-64,-370,-167,-750,-66,23,-63,-557,97,-557,-53,36,-32,-547,370,-275,-52,47,-21,-541,535,-228,-29,50,-2,-653,655,52,-16,51,26,-520,661,272,9,40,53,-301,498,323,16,36,32,-187,284,322,42,16,40,4,99,340,42,3,32,143,-84,291,36,-10,14,268,-218,254,23,-14,-2,302,-228,131,13,-18,-3,245,-221,62,0,-10,-14,200,-190,69,-9,-10,-20,155,-147,18,-5,-7,-13,51,-97,18,-5,-3,-9,24,-52,35,-1,-1,-6,12,-29,6,-1,0,-2,-30,-23,17,clockwise
2,8,2,16,41,-10,-1,2,-5,47,1,-9,-29,46,0,96,653,261,-23,56,8,180,566,384,0,50,28,345,454,424,29,39,41,619,299,337,49,4,47,640,11,513,71,-46,45,681,-650,166,63,-94,12,490,-855,-295,28,-112,-34,38,-925,-694,-15,-99,-65,-469,-762,-848,-50,-42,-76,-508,-437,-1147,-81,0,-103,-903,30,-1083,-84,63,-67,-961,331,-749,-73,99,-41,-764,637,-180,-54,109,-10,-506,862,86,-21,89,22,-394,991,506,36,66,88,73,657,754,60,5,103,407,261,788,54,-36,81,476,-118,496,40,-58,43,385,-421,337,14,-56,4,243,-598,270,-22,-51,-39,89,-451,25,-37,-18,-57,-94,-206,-110,-23,1,-35,-95,-48,-84,-12,9,-7,-21,16,39,-3,6,5,32,35,-13,2,5,9,32,33,-10,4,0,2,42,11,13,3,-2,2,21,-3,-11,clockwise
-1,-5,-8,-19,40,-38,1,1,0,12,8,-5,-23,14,-49,15,218,-53,-23,18,-39,8,420,49,-17,35,-13,-20,519,150,0,53,8,164,609,358,23,43,33,383,490,356,53,14,68,557,151,445,74,-27,71,559,-311,332,72,-65,44,622,-756,62,39,-103,0,316,-998,-201,0,-96,-37,-43,-952,-613,-30,-69,-55,-276,-757,-819,-66,-24,-69,-453,-423,-966,-77,13,-72,-653,-7,-934,-69,49,-39,-675,285,-625,-56,72,-29,-677,547,-395,-38,85,-2,-632,741,75,-8,79,18,-360,756,312,18,50,47,-125,616,568,35,29,44,121,439,650,42,-11,52,307,94,629,43,-35,39,379,-159,443,27,-44,19,259,-324,280,8,-36,-3,211,-362,67,-5,-30,-17,75,-348,15,-13,-8,-22,23,-188,-79,-18,-2,-22,-50,-112,-39,-9,5,-9,-11,-27,-74,-6,3,-3,-37,1,-7,clockwise
5,-1,4,11,-6,37,1,-3,1,0,-11,-7,-27,22,-34,37,271,23,-29,18,-17,-8,351,126,-15,42,0,139,408,227,-3,35,14,239,391,334,17,29,33,371,299,393,51,-15,55,370,-48,416,64,-35,47,464,-347,204,55,-82,24,324,-670,33,29,-85,0,114,-782,-274,-4,-78,-33,-2,-754,-621,-35,-45,-52,-179,-547,-843,-59,-9,-61,-352,-290,-956,-65,28,-65,-520,71,-780,-63,56,-54,-613,367,-564,-55,70,-32,-681,660,-258,-30,77,0,-557,767,103,4,63,24,-347,752,336,14,40,38,-161,569,610,40,17,49,166,372,594,54,-9,45,311,51,562,41,-29,26,374,-176,355,22,-40,13,290,-322,226,13,-35,4,245,-357,78,-6,-28,-9,122,-370,-27,-21,-16,-16,4,-296,-71,-16,-4,-8,-18,-194,-102,-18,5,-13,-44,-106,-87,-11,4,-4,-36,-41,-8,clockwise
-1,-2,-16,58,-4,97,-2,-1,-5,-12,30,73,-38,29,-24,109,319,-32,-38,48,-24,-103,420,208,2,43,11,130,461,355,20,37,31,377,427,445,48,10,45,491,205,145,83,-26,56,574,-241,260,82,-75,41,677,-621,-54,36,-90,-13,357,-879,-562,4,-81,-40,-33,-848,-705,-43,-39,-76,-272,-600,-968,-70,-11,-72,-670,-152,-835,-82,40,-50,-734,252,-636,-66,62,-25,-837,520,-189,-44,73,-5,-659,654,73,-13,58,24,-527,757,442,21,47,39,-174,649,416,48,18,55,34,377,623,52,3,56,363,82,457,42,-24,42,323,-162,370,30,-28,18,364,-345,166,4,-32,-5,264,-430,60,-7,-24,-26,135,-334,17,-16,-19,-28,0,-184,0,-16,-5,-23,-30,-59,-48,-13,0,-7,-46,-13,-79,-7,6,0,-70,-1,12,0,2,1,-33,-2,6,2,0,3,-24,7,38,clockwise
6,-3,-3,107,50,-37,3,0,-2,12,-7,1,-29,11,-41,40,264,-4,-21,17,-28,8,395,84,-25,32,-8,-16,440,165,-6,52,15,89,482,334,21,39,24,274,364,361,60,7,57,425,50,399,61,-21,57,520,-282,222,67,-60,37,597,-597,-47,39,-91,0,350,-807,-255,-3,-81,-20,82,-773,-525,-36,-54,-44,-142,-642,-772,-49,-24,-57,-320,-398,-878,-62,2,-64,-569,-52,-704,-67,33,-46,-600,274,-502,-46,48,-28,-618,518,-243,-36,69,-5,-612,679,-11,-15,62,18,-501,686,358,13,56,40,-207,573,478,39,34,50,4,379,562,40,14,49,208,103,498,44,-19,41,326,-175,480,30,-35,18,370,-291,205,13,-36,0,236,-336,27,-4,-32,-17,200,-315,-21,-12,-23,-26,59,-212,-59,-15,-9,-23,-15,-99,-129,-12,3,-14,-80,-53,-49,-7,6,-4,-47,-36,-65,clockwise
-4,-4,-1,46,64,41,0,-1,0,40,49,28,-26,5,-45,30,122,-53,-19,6,-36,-14,340,17,-33,32,-18,-131,433,158,-4,41,-4,82,526,291,12,39,19,231,510,254,58,19,64,478,269,343,71,1,72,620,-178,413,88,-54,57,795,-604,78,45,-74,27,492,-845,-191,11,-77,-18,191,-921,-494,-29,-54,-47,39,-759,-735,-58,-41,-70,-353,-418,-893,-76,0,-73,-578,-25,-870,-71,25,-56,-715,252,-507,-56,40,-28,-723,472,-440,-38,50,-8,-890,648,76,-16,62,19,-605,687,211,12,54,36,-418,612,533,42,34,51,-29,437,510,50,13,52,167,149,533,43,-8,38,349,-177,434,30,-28,20,382,-321,312,14,-40,-2,388,-388,82,-4,-29,-22,203,-362,37,-14,-19,-29,150,-219,32,-15,-12,-22,20,-50,-117,-7,2,-14,-9,-33,-104,-3,7,-2,-20,-10,35,clockwise
-1,-6,-3,-42,-12,58,0,-3,0,-29,-16,36,-31,9,-43,41,195,-13,-22,12,-29,-9,405,66,-16,19,-16,23,537,143,0,40,6,86,588,259,20,44,31,257,462,309,55,16,70,385,81,479,58,-7,56,522,-352,372,57,-39,51,571,-753,103,30,-72,10,507,-941,-109,-3,-86,-26,180,-857,-454,-35,-64,-51,3,-604,-780,-52,-38,-45,-240,-292,-948,-70,-8,-59,-441,34,-950,-69,25,-39,-724,303,-566,-51,41,-21,-674,474,-396,-30,56,-3,-746,581,60,-8,55,14,-621,542,203,15,52,30,-455,503,483,35,26,38,-123,356,529,39,14,40,81,132,487,38,-2,32,246,-110,409,28,-16,18,328,-205,194,17,-27,5,330,-319,148,2,-21,-11,302,-297,26,-6,-12,-25,176,-200,-20,-9,-11,-23,96,-62,-68,-10,-4,-19,18,-11,-20,-5,0,-9,-41,0,-28,clockwise
2,10,-4,-33,-7,-19,6,7,2,11,0,34,-26,14,-39,83,181,-67,-23,10,-30,-32,362,47,-35,36,-8,-55,419,125,0,51,10,208,466,374,22,46,22,326,403,330,50,16,60,444,179,500,64,-8,60,624,-222,321,82,-62,38,698,-601,60,39,-98,6,416,-833,-167,-6,-106,-24,67,-832,-657,-28,-74,-45,-272,-695,-885,-56,-31,-55,-512,-386,-926,-81,7,-55,-662,20,-869,-63,45,-40,-863,312,-530,-48,71,-22,-682,499,-191,-37,73,-10,-574,638,99,-6,60,13,-398,616,340,26,46,35,-239,505,549,24,22,41,70,340,494,36,1,50,183,81,470,38,-12,37,330,-164,306,24,-26,21,328,-244,153,11,-23,-5,303,-295,40,2,-21,-14,183,-275,13,-6,-13,-26,113,-158,-8,-8,-9,-18,34,-71,-57,-7,0,-14,-19,-55,-31,-2,-2,-4,-36,-41,82,clockwise
-1,6,0,-63,-29,-23,2,6,-2,-21,-50,-11,-29,13,-52,149,91,-109,-23,5,-44,-104,411,48,-18,26,-12,-51,518,93,-14,50,-1,64,572,280,23,49,29,336,588,270,66,24,65,475,353,640,68,0,64,720,-170,370,68,-54,45,620,-651,67,56,-91,22,493,-913,-104,1,-97,-23,136,-1027,-527,-37,-75,-39,-239,-879,-834,-53,-39,-46,-369,-580,-996,-62,0,-56,-381,-203,-983,-71,27,-54,-673,125,-722,-58,50,-34,-649,391,-366,-41,66,-22,-732,655,-34,-23,62,5,-601,807,168,-1,59,32,-503,750,532,37,46,52,-73,484,533,43,8,49,69,195,726,32,-14,47,347,-77,403,32,-23,22,366,-320,291,18,-29,-4,321,-380,166,-7,-33,-20,214,-262,107,-12,-12,-20,110,-142,-74,-4,-8,-21,52,-131,-96,-5,-3,-11,-36,-86,41,-4,-1,-5,-16,-45,9,clockwise
-1,-4,1,67,-1,-24,3,-1,1,19,-24,1,-25,4,-46,49,256,-42,-27,18,-31,-110,423,130,-22,27,-7,-24,457,191,-12,43,5,-1,472,350,10,42,24,203,439,262,47,16,65,373,122,490,58,-15,57,593,-245,256,56,-46,40,517,-554,31,43,-71,18,544,-736,-206,4,-81,-18,319,-819,-530,-28,-63,-46,-10,-722,-705,-48,-35,-52,-289,-474,-829,-57,-11,-56,-421,-179,-821,-63,13,-45,-612,121,-618,-51,37,-29,-711,431,-403,-30,58,-8,-658,622,-150,-9,58,9,-531,650,129,9,59,23,-325,599,350,27,41,28,-157,458,504,42,21,42,65,197,511,38,0,35,231,-40,521,33,-18,25,315,-177,361,23,-28,7,314,-243,261,9,-26,-6,264,-245,97,-7,-20,-19,220,-182,-17,-14,-16,-20,92,-96,-44,-14,-7,-14,47,-83,-58,-13,-5,-7,-49,-78,-9,clockwise
4,7,13,50,11,-100,5,9,5,-46,37,-61,-13,45,-26,179,552,45,-4,32,3,140,556,171,3,49,16,148,441,227,27,38,34,304,336,336,42,18,41,473,139,368,58,-33,54,372,-409,367,57,-55,35,334,-754,86,37,-94,9,272,-865,-91,0,-90,-28,38,-851,-500,-31,-70,-49,-144,-657,-658,-55,-38,-60,-312,-309,-878,-74,6,-67,-459,56,-836,-67,38,-60,-561,348,-674,-51,59,-34,-584,577,-420,-37,81,-12,-611,715,-107,-11,85,16,-396,671,227,9,64,34,-159,564,430,30,33,47,0,313,570,36,9,45,154,112,586,37,-26,37,251,-124,473,26,-35,21,242,-244,261,16,-40,4,167,-298,157,0,-23,-9,155,-230,2,-12,-14,-16,72,-169,-40,-13,-1,-18,50,-82,-112,-12,0,-15,-19,-27,-34,-7,4,-8,9,0,-4,-2,0,-3,-16,7,39,clockwise
-2,-2,4,-19,13,42,1,-2,4,2,2,3,-18,41,-27,-94,589,80,-8,59,-9,104,545,140,18,40,22,207,445,322,33,29,39,423,284,343,42,10,38,493,65,427,63,-49,60,576,-535,149,49,-90,39,416,-804,124,11,-93,-7,206,-942,-329,-22,-84,-47,-168,-837,-524,-44,-56,-56,-304,-557,-827,-69,-12,-80,-507,-172,-847,-68,29,-73,-560,206,-796,-57,53,-52,-604,529,-513,-32,80,-22,-516,753,-230,-12,77,-4,-438,828,118,15,74,33,-210,725,221,32,44,56,-77,465,543,42,17,57,162,154,577,39,-19,48,265,-90,461,25,-31,32,264,-297,337,9,-40,8,221,-369,215,-3,-33,-13,135,-317,69,-12,-18,-20,13,-195,1,-15,-4,-19,-15,-120,-61,-9,2,-14,-32,-44,-33,-6,5,-7,-24,-3,-7,-1,4,-2,2,8,17,1,2,0,19,-2,17,clockwise
0,-4,3,-39,3,80,1,-5,2,24,4,39,-21,21,-40,-116,265,30,-9,40,-23,-80,396,178,-8,41,-7,24,409,297,11,50,17,218,399,383,34,38,28,410,273,329,62,-7,62,626,-92,379,63,-46,54,664,-491,154,56,-88,25,523,-787,-155,19,-111,-18,223,-911,-459,-25,-100,-48,-134,-790,-820,-58,-52,-78,-468,-492,-918,-80,-3,-81,-736,-52,-831,-83,47,-62,-778,356,-586,-67,83,-31,-718,688,-323,-36,96,0,-560,843,65,-2,80,39,-266,822,377,28,41,59,-51,549,501,50,16,71,156,246,550,47,-16,57,249,-73,475,35,-31,32,233,-275,250,15,-33,8,188,-375,179,-4,-27,-13,201,-324,44,-18,-18,-27,76,-232,-2,-16,-7,-26,34,-112,-25,-10,-1,-13,38,-60,-50,-7,-2,-7,-9,-27,-10,-2,1,0,-16,-1,45,1,0,0,-1,6,-23,clockwise
0,-2,2,-17,-24,-23,2,-1,0,-17,-19,5,-22,35,-31,-39,505,87,-11,57,-11,79,509,199,12,45,29,231,405,311,30,31,40,440,234,404,43,4,44,481,18,373,62,-46,61,495,-528,185,52,-85,36,408,-797,-18,16,-96,-28,249,-925,-324,-17,-88,-61,-105,-779,-678,-52,-49,-85,-333,-468,-903,-74,0,-95,-577,-3,-856,-80,36,-76,-692,402,-665,-64,73,-38,-747,766,-398,-29,89,0,-600,921,-59,5,80,42,-389,879,244,29,57,69,-67,579,424,50,23,73,123,178,564,49,-12,56,226,-159,509,28,-28,33,321,-307,320,9,-36,2,263,-405,214,0,-33,-15,192,-324,117,-11,-21,-24,85,-172,58,-13,-8,-22,30,-82,-103,-9,-1,-13,-75,-58,0,-4,3,-2,-27,-5,27,-1,1,-1,-23,-19,21,1,2,0,7,-17,8,1,-2,2,10,-7,14,clockwise
0,-4,-2,9,1,-22,-3,-1,0,-20,9,-25,-25,31,-35,73,566,119,-16,50,-18,286,673,155,14,38,20,301,567,326,38,34,49,678,377,282,56,-14,48,586,12,418,69,-52,64,413,-614,28,53,-86,39,243,-1011,65,11,-93,-15,85,-1159,-479,-29,-88,-58,-468,-980,-546,-61,-31,-69,-419,-549,-779,-74,0,-80,-534,-145,-797,-71,31,-59,-588,233,-648,-60,56,-41,-553,580,-359,-35,66,-19,-447,755,-235,-9,71,0,-343,838,81,10,61,25,-135,818,267,27,46,31,-127,649,419,40,24,50,-2,371,571,38,5,49,146,86,456,28,-18,39,183,-158,448,17,-29,22,244,-331,314,5,-35,10,290,-371,110,-7,-29,-14,185,-338,4,-13,-18,-23,82,-244,-55,-16,-7,-20,-8,-154,-85,-11,2,-14,-25,-69,-72,-6,5,-9,-39,-31,-18,-2,4,-1,-19,-26,1,clockwise
-1,1,-2,-77,-24,10,1,0,1,-29,15,-14,-27,33,-27,-188,500,147,-24,59,-3,-9,539,225,8,49,21,183,402,363,32,37,35,378,252,370,46,7,41,474,66,452,64,-32,52,650,-388,124,56,-80,24,542,-693,-17,14,-93,-15,241,-819,-282,-21,-84,-44,20,-750,-653,-51,-50,-70,-230,-532,-902,-61,-15,-69,-469,-233,-872,-69,22,-64,-673,164,-639,-55,52,-40,-656,532,-423,-34,74,-15,-681,803,-116,-16,74,21,-485,839,213,10,59,43,-301,683,463,32,36,60,20,430,499,42,6,56,179,113,550,40,-22,46,271,-190,369,31,-32,21,267,-304,277,11,-36,0,214,-304,41,5,-27,-12,138,-291,8,-8,-14,-18,31,-224,-10,-17,-3,-18,8,-113,-94,-10,1,-12,-16,-78,-67,-5,7,-6,3,-55,-39,-2,5,-3,-21,-47,36,0,1,-2,15,-6,61,clockwise
5,-6,3,70,23,-40,1,-4,-1,-48,9,0,-34,32,-21,-169,602,161,-19,49,2,15,520,202,4,43,22,163,410,292,26,25,39,361,256,300,37,17,43,481,96,402,69,-30,50,653,-518,79,57,-68,15,528,-787,-14,18,-90,-27,338,-887,-392,-22,-75,-61,-31,-738,-698,-54,-50,-75,-334,-469,-861,-80,-5,-81,-666,-18,-753,-79,33,-44,-683,393,-545,-56,58,-13,-766,663,-274,-30,70,16,-583,738,34,0,55,35,-400,684,360,27,35,55,-98,480,417,43,11,47,19,198,584,41,-3,39,214,-20,305,33,-16,20,229,-158,298,20,-20,5,249,-246,137,7,-21,-7,230,-266,115,-5,-18,-18,106,-189,-6,-9,-9,-19,63,-146,-55,-10,-4,-15,-13,-91,-2,-6,0,-7,26,-65,-59,-5,1,-3,-33,-20,44,-2,2,-1,23,-20,-45,-1,0,-1,-19,-12,24,clockwise
-2,-1,2,11,2,-12,0,1,2,11,14,-29,-32,34,-24,-54,428,182,-26,40,0,-6,454,271,-5,47,19,143,384,322,24,39,33,367,297,269,41,23,40,554,105,408,72,-25,50,663,-412,175,68,-60,21,600,-723,-119,36,-96,-19,408,-872,-401,-5,-95,-58,47,-803,-749,-48,-68,-88,-418,-490,-869,-72,-11,-83,-770,-15,-757,-81,28,-59,-846,361,-584,-66,61,-26,-835,652,-396,-46,82,12,-728,811,-31,-2,78,46,-408,750,331,17,46,50,-100,548,470,44,23,56,102,281,510,51,5,48,258,22,488,42,-18,29,304,-205,357,20,-32,9,293,-322,290,5,-32,-3,272,-348,158,-9,-26,-21,154,-270,-18,-18,-19,-23,45,-181,-37,-15,-7,-19,9,-102,-65,-10,0,-11,-6,-55,-68,-1,2,0,-21,-35,22,0,3,0,0,-21,-24,1,0,0,-4,-13,18,clockwise
0,-4,2,-27,74,-63,0,-1,0,-23,20,-29,-25,12,-46,34,289,-68,-27,24,-30,-168,473,97,-14,43,5,54,487,152,15,43,35,261,419,358,36,28,43,446,223,249,61,-1,71,501,-181,434,65,-37,60,705,-619,93,48,-77,14,504,-909,-87,2,-88,-40,153,-950,-464,-31,-72,-64,-115,-751,-764,-57,-43,-82,-483,-377,-824,-69,4,-83,-680,81,-781,-62,31,-56,-800,513,-488,-38,63,-17,-718,816,-277,-17,77,11,-635,916,124,8,76,47,-225,828,312,31,44,68,-16,518,573,41,22,61,174,145,560,34,-9,46,347,-161,444,27,-38,24,357,-295,293,12,-45,-1,193,-388,218,0,-37,-13,146,-333,62,-11,-21,-20,49,-235,-82,-11,-8,-20,-64,-151,-139,-15,6,-12,-82,-110,-38,-9,7,-5,-28,-51,-68,-5,8,-4,-32,-17,17,0,3,-1,0,4,36,clockwise
4,-3,-1,76,8,-45,2,-3,1,33,12,-6,-27,2,-46,-29,167,-121,-21,12,-28,-127,405,4,-12,30,-10,-46,444,87,0,35,8,20,437,359,3,33,23,206,334,168,39,25,56,389,119,392,41,3,49,592,-230,235,42,-35,35,590,-515,265,26,-55,9,600,-690,-197,12,-75,-17,292,-739,-353,-15,-74,-33,-53,-698,-580,-30,-54,-37,-222,-565,-700,-51,-28,-56,-552,-337,-750,-59,-1,-51,-749,-18,-587,-50,43,-40,-696,336,-330,-36,53,-21,-529,590,-273,-15,57,-9,-512,737,94,8,56,26,-193,733,228,34,47,39,-11,601,389,39,18,48,163,386,376,37,5,39,230,165,370,27,-10,31,275,-102,325,17,-22,11,230,-256,312,1,-27,-4,131,-283,200,-2,-20,-13,36,-285,80,-6,-13,-13,-5,-248,40,-4,-9,-11,-15,-155,9,-4,-1,-8,-8,-59,-25,clockwise
86,28,131,-232,-639,-315,30,64,61,257,-581,-136,9,68,32,222,-568,136,-1,47,7,378,-455,251,-27,31,-13,274,-352,265,-37,15,-56,348,-133,390,-36,-19,-64,95,135,630,-25,-59,-63,-72,444,479,-2,-71,-47,-389,708,328,36,-86,-14,-502,833,65,40,-73,19,-597,793,-141,53,-54,42,-727,607,-349,53,-13,68,-585,295,-561,36,14,75,-424,-101,-626,27,53,72,-236,-375,-719,13,64,58,3,-572,-491,-4,68,47,392,-714,-499,-21,58,6,382,-772,-193,-24,39,-16,483,-703,-67,-37,17,-44,437,-533,126,-47,2,-63,302,-297,222,-40,-17,-63,152,-18,351,-24,-26,-44,127,245,234,-15,-27,-23,37,415,269,-2,-21,-3,2,413,52,13,-16,14,-25,321,60,13,-3,15,-63,220,35,12,0,17,27,140,-47,6,5,9,-18,38,-43,3,4,6,31,8,-14,notClockwise
93,-6,131,-195,-598,-338,31,58,63,169,-673,-200,5,65,20,316,-657,24,-5,50,1,331,-511,218,-18,27,-26,255,-359,255,-42,16,-59,176,-118,428,-35,-20,-59,19,200,562,-26,-51,-56,-169,513,540,-6,-65,-36,-324,714,302,18,-67,-6,-433,789,175,30,-58,17,-396,767,-86,35,-42,35,-555,543,-306,40,-16,70,-360,301,-430,26,-6,63,-378,-6,-524,28,21,70,-290,-274,-646,17,36,59,-57,-483,-450,12,43,38,176,-595,-578,-2,44,8,212,-705,-302,-12,50,-13,325,-656,-131,-29,37,-27,436,-515,-107,-36,16,-52,285,-397,207,-39,4,-51,319,-176,135,-30,-13,-53,101,91,243,-15,-16,-31,109,270,202,-4,-21,-21,38,348,205,8,-10,2,1,364,41,14,-9,10,-39,314,102,15,-2,16,-5,207,54,12,-2,15,-18,93,4,6,4,9,-21,18,-27,notClockwise
104,4,132,-561,-499,-140,49,57,71,105,-684,-142,21,75,28,312,-663,-2,9,56,1,401,-545,181,-13,43,-19,382,-395,294,-43,19,-64,431,-225,376,-41,-16,-67,158,126,524,-27,-62,-59,-63,423,584,-23,-75,-39,-306,638,389,7,-85,-7,-582,733,182,17,-63,20,-684,760,55,30,-45,43,-540,577,-197,24,-22,50,-476,374,-393,28,-4,57,-412,112,-450,21,11,56,-238,-112,-498,25,23,51,-99,-284,-599,6,35,31,-59,-370,-537,11,51,32,87,-472,-499,6,54,17,203,-596,-324,-6,52,-10,325,-686,-128,-18,36,-30,436,-634,17,-25,15,-50,443,-479,78,-35,-1,-61,289,-267,305,-33,-17,-56,236,64,292,-21,-25,-32,131,362,216,-11,-18,-15,52,443,109,6,-13,8,-10,412,142,11,-11,15,-39,346,62,14,-2,18,-36,226,44,11,2,11,-17,103,-11,notClockwise
100,23,120,36,-759,-568,43,51,64,174,-806,-291,15,73,24,379,-634,-62,-1,54,-7,324,-483,207,-19,38,-23,340,-328,219,-44,12,-56,232,-59,524,-36,-18,-59,120,269,582,-22,-63,-47,-118,489,669,-5,-79,-25,-358,632,377,16,-80,6,-616,689,190,31,-54,21,-685,570,-31,27,-34,41,-624,417,-332,22,-12,51,-562,217,-465,15,12,60,-371,24,-592,17,26,52,-131,-187,-537,10,34,53,131,-305,-638,1,34,32,200,-437,-435,1,39,14,268,-547,-344,0,31,-6,419,-579,-249,-10,24,-23,327,-534,-120,-13,14,-38,345,-442,-24,-17,8,-50,199,-321,124,-23,5,-51,134,-158,133,-19,-3,-37,54,45,277,-10,-6,-21,95,235,162,-11,-9,-17,14,338,147,4,-9,2,83,392,197,11,-11,14,84,393,110,11,-4,9,3,259,36,10,-1,9,11,142,-37,notClockwise
69,76,131,-216,-1221,-422,27,76,48,196,-814,-227,0,67,3,298,-580,64,-12,50,-18,306,-434,288,-17,26,-24,227,-300,356,-32,-7,-58,234,45,507,-32,-41,-50,32,270,635,-22,-69,-33,-104,457,505,-9,-80,-15,-299,607,311,4,-69,4,-469,657,38,14,-53,18,-586,592,-152,26,-26,38,-457,440,-414,26,-16,41,-540,207,-522,26,11,63,-406,-10,-512,20,25,45,-353,-158,-496,19,42,51,-89,-306,-618,8,50,33,-32,-400,-397,4,58,30,313,-503,-388,0,39,-14,204,-540,-40,1,34,-3,552,-585,-133,-13,16,-27,434,-459,64,-17,2,-40,447,-405,27,-15,-8,-52,124,-214,380,-18,-5,-28,271,-22,43,-24,-14,-39,56,160,221,-13,-13,-23,87,237,78,-7,-21,-8,-56,355,231,0,-8,5,17,374,51,5,-7,8,-33,294,50,10,-3,15,-52,200,17,notClockwise
84,33,129,305,-610,-719,37,69,73,374,-677,-264,13,67,29,226,-601,86,0,50,4,301,-501,282,-16,32,-10,312,-349,146,-36,14,-50,207,-117,473,-36,-16,-60,102,208,628,-27,-50,-51,12,463,628,-10,-65,-36,-199,666,325,16,-76,-9,-463,715,212,25,-65,12,-597,677,-6,33,-53,32,-717,517,-129,36,-23,60,-606,273,-435,32,-6,62,-510,17,-486,22,27,62,-334,-181,-572,15,33,49,-154,-345,-567,14,48,43,90,-497,-626,5,46,16,236,-556,-420,-2,52,7,399,-672,-320,-16,34,-19,479,-677,-165,-29,28,-31,530,-582,-96,-37,3,-52,438,-353,93,-32,-1,-53,249,-119,210,-30,-15,-48,94,179,224,-14,-14,-30,-1,372,182,7,-21,-9,33,435,194,13,-17,5,-68,341,113,9,-6,12,-70,283,50,10,3,16,-26,213,53,7,4,11,-16,132,-12,notClockwise
75,62,132,376,-952,-371,19,92,52,601,-779,-5,-3,63,15,466,-619,297,-10,36,-10,538,-441,370,-27,13,-21,387,-290,246,-33,-9,-55,276,0,446,-26,-48,-56,8,259,612,-12,-69,-42,-162,479,379,1,-72,-22,-478,595,200,24,-70,2,-619,636,34,21,-54,16,-796,580,-83,26,-31,42,-726,433,-329,22,-10,49,-572,197,-427,27,14,56,-507,-30,-510,21,39,49,-280,-197,-461,21,43,47,101,-285,-595,14,43,23,172,-394,-497,10,48,14,241,-478,-311,-8,42,-1,426,-516,-211,-9,32,-15,553,-591,-201,-16,19,-32,334,-577,98,-16,9,-37,398,-483,234,-13,-3,-39,378,-296,196,-18,-14,-45,269,-101,185,-17,-18,-33,84,159,238,-16,-17,-17,75,310,162,-13,-14,-6,-4,424,86,-9,-12,3,-81,455,46,0,-9,14,-84,403,-4,7,-7,16,-97,291,20,notClockwise
56,83,124,-104,-474,-131,42,59,70,204,-514,-39,8,65,26,254,-508,138,-9,56,2,437,-418,218,-13,39,-9,402,-284,273,-30,6,-43,476,-143,365,-37,-18,-54,200,57,543,-19,-51,-37,27,279,409,-4,-67,-24,-231,425,326,4,-75,-10,-370,501,141,17,-66,1,-594,545,44,26,-51,15,-634,479,-106,22,-24,25,-579,383,-254,19,-14,37,-587,243,-314,26,13,48,-590,44,-348,16,28,46,-440,-106,-439,23,49,56,-224,-172,-508,30,53,36,-38,-270,-479,23,54,27,247,-459,-381,3,41,9,362,-598,-306,2,38,-3,640,-684,-180,-21,10,-47,555,-664,-60,-37,1,-44,360,-650,87,-27,-6,-49,306,-359,297,-20,-11,-48,189,-23,38,-20,-12,-42,-65,208,176,-12,-8,-8,44,326,237,-3,-13,-2,84,479,78,-3,-6,0,-54,430,121,2,-4,5,23,334,11,notClockwise
62,20,143,-426,-94,-234,46,60,94,263,-417,-143,10,67,46,281,-507,98,-1,62,13,486,-455,212,-10,33,-7,379,-352,333,-33,13,-51,463,-247,376,-39,-25,-69,147,25,594,-24,-59,-61,-64,325,424,-12,-81,-40,-382,559,480,7,-76,-10,-553,662,124,18,-64,11,-713,673,-28,24,-44,35,-739,559,-180,24,-19,49,-649,359,-431,25,1,63,-566,102,-532,22,23,57,-388,-94,-624,25,40,54,-174,-271,-653,21,50,48,148,-370,-684,19,47,35,423,-507,-573,4,39,-1,349,-534,-357,-3,42,-17,363,-564,-155,-10,26,-30,382,-546,89,-19,11,-48,157,-493,260,-29,4,-54,90,-288,415,-20,-3,-38,239,-53,385,-21,-22,-31,215,151,289,-17,-22,-19,118,312,280,-8,-19,-9,167,399,50,5,-14,1,8,405,3,3,-6,6,-36,297,-24,6,0,10,-18,215,-30,notClockwise
49,78,129,11,-775,-80,4,91,55,91,-776,237,-7,80,12,529,-633,393,-17,39,-14,365,-456,549,-18,19,-20,408,-287,396,-33,-15,-63,272,-13,586,-25,-57,-59,86,315,453,-14,-84,-41,-286,536,405,0,-79,-16,-414,666,-11,9,-68,8,-769,679,-108,16,-46,32,-748,549,-245,16,-18,39,-570,360,-444,16,-1,51,-500,131,-487,20,22,55,-347,-87,-480,18,30,43,-155,-279,-502,11,36,36,11,-331,-561,15,41,31,32,-393,-467,13,59,26,272,-437,-450,3,43,-2,341,-500,-161,2,31,-14,433,-499,-85,-1,21,-30,348,-439,94,-7,11,-38,467,-335,126,-21,-11,-68,202,-169,314,-21,-15,-46,151,33,293,-23,-15,-36,54,216,281,-12,-13,-11,124,311,133,-5,-16,0,-30,326,154,8,-10,25,55,323,58,9,-2,21,-5,260,84,13,2,20,18,180,-68,notClockwise
78,56,144,-11,-851,-305,36,68,73,126,-923,89,-1,83,26,246,-796,377,-15,55,-10,542,-556,403,-25,20,-35,415,-337,297,-41,-9,-78,293,-3,555,-38,-44,-71,84,395,693,-14,-84,-57,-174,716,317,6,-86,-20,-645,843,178,28,-65,18,-836,852,14,37,-41,47,-792,696,-308,38,-21,59,-685,368,-620,43,15,75,-557,4,-701,34,36,66,-269,-290,-719,26,52,63,-45,-521,-757,10,58,38,233,-684,-587,0,59,16,373,-758,-314,-22,37,-23,482,-718,-188,-24,20,-38,348,-629,187,-34,7,-51,406,-510,234,-35,-9,-54,286,-203,399,-27,-15,-49,218,152,268,-13,-20,-24,172,377,357,-8,-20,-8,170,474,182,2,-17,0,71,495,49,10,-12,16,-21,357,24,11,-6,16,-41,202,-52,6,2,13,-56,81,-41,4,5,9,-20,24,-46,1,2,4,15,-6,-27,notClockwise
91,22,134,118,-408,-249,44,48,73,144,-638,-30,11,59,28,50,-683,203,-3,52,6,408,-545,216,-13,30,-20,342,-378,231,-40,12,-64,328,-159,374,-40,-21,-72,118,222,653,-24,-51,-52,37,579,383,-7,-73,-35,-398,737,451,6,-70,6,-601,781,132,28,-62,33,-835,654,44,26,-31,49,-789,402,-307,27,-14,60,-626,120,-538,19,11,56,-506,-106,-705,20,35,50,-256,-312,-714,8,50,41,132,-481,-719,7,48,29,353,-616,-620,-1,51,1,404,-657,-306,-7,43,-17,616,-606,-135,-18,22,-47,443,-528,127,-21,6,-53,377,-289,272,-25,-12,-57,247,9,434,-17,-23,-43,209,235,228,-10,-26,-25,-53,360,373,0,-19,3,76,439,133,3,-12,8,-37,396,91,14,-4,17,-32,285,-43,6,2,15,-101,166,4,7,6,19,3,84,-35,5,3,7,0,16,-54,notClockwise
58,36,144,213,-435,-185,35,50,62,282,-522,-83,4,61,37,366,-586,66,-11,45,-3,417,-507,233,-12,33,-20,303,-382,403,-35,0,-64,254,-158,534,-33,-32,-62,55,155,591,-22,-66,-57,-241,521,457,-5,-76,-26,-511,761,456,7,-77,5,-669,864,-10,24,-46,32,-793,740,-242,35,-21,58,-626,446,-496,34,0,57,-517,125,-646,33,23,67,-354,-213,-678,27,44,58,-66,-460,-615,17,47,39,193,-581,-591,-10,48,11,197,-628,-378,-9,45,0,374,-625,-207,-15,31,-25,395,-534,-13,-25,14,-43,437,-450,96,-22,0,-46,282,-317,172,-11,-8,-48,282,-97,267,-18,-12,-41,126,76,377,-14,-15,-24,124,236,149,-2,-15,-7,6,375,199,2,-10,4,33,409,121,7,-9,16,-34,343,64,12,-5,17,18,250,-1,11,0,16,-2,157,-55,6,1,7,-16,44,-58,notClockwise
39,81,146,361,-641,-395,24,65,63,401,-752,-101,6,63,13,289,-719,214,-1,44,-17,401,-558,368,-12,17,-27,254,-341,335,-28,-13,-65,108,-32,516,-29,-39,-58,-90,374,659,-19,-67,-38,-232,688,455,-10,-71,-6,-521,841,244,10,-57,20,-606,822,1,16,-45,34,-653,662,-242,32,-15,66,-475,287,-533,27,1,61,-443,26,-635,28,17,56,-264,-226,-670,11,37,42,-92,-409,-616,13,53,46,176,-578,-572,-8,37,-3,186,-576,-261,-8,40,-7,318,-633,-191,-23,29,-32,346,-588,16,-15,14,-34,425,-488,120,-21,-6,-57,266,-262,270,-13,-7,-42,178,-16,219,-12,-11,-39,221,216,155,0,-12,-13,111,354,179,0,-13,-7,3,396,130,7,-5,8,35,337,90,5,-2,10,29,238,-47,6,-1,13,-50,147,47,4,1,8,0,72,5,3,1,5,15,26,-16,notClockwise
113,-11,111,-166,-502,-543,59,27,56,17,-517,-324,27,40,43,-23,-617,-71,12,61,12,334,-545,51,3,36,-4,207,-449,183,-37,40,-43,414,-244,354,-38,6,-61,276,-58,635,-31,-25,-66,190,301,490,-21,-69,-50,-206,572,691,-3,-73,-26,-276,752,191,21,-85,-5,-695,755,147,25,-59,31,-742,740,-120,30,-34,60,-703,490,-420,29,-7,63,-646,152,-586,19,22,63,-510,-136,-617,17,45,67,-246,-359,-708,12,59,54,150,-505,-664,0,55,14,341,-609,-441,-8,49,1,433,-632,-249,-20,40,-22,569,-561,-76,-29,13,-48,556,-386,23,-30,-3,-58,321,-220,243,-23,-18,-45,258,27,345,-13,-19,-36,148,226,192,0,-25,-16,32,310,288,4,-15,4,-15,303,198,10,-16,12,-12,251,53,11,-4,10,-90,171,73,8,0,15,34,128,-27,5,-2,9,-75,65,7,notClockwise
71,68,123,-192,-652,-366,32,77,57,115,-714,33,5,75,17,392,-588,198,-10,40,-10,522,-463,224,-13,23,-23,405,-338,120,-32,-5,-62,384,-95,420,-30,-33,-56,223,249,487,-21,-64,-46,-22,505,310,-5,-61,-17,-343,683,296,2,-63,9,-474,765,121,16,-51,34,-596,690,6,18,-34,46,-678,470,-249,28,-11,62,-526,178,-411,23,5,51,-486,-73,-497,24,29,49,-397,-284,-578,13,41,39,-115,-422,-471,12,48,28,186,-504,-561,0,45,5,217,-518,-269,-2,38,-4,367,-519,-153,-15,24,-30,460,-454,-64,-15,9,-40,361,-349,40,-20,-6,-50,222,-194,171,-19,-6,-44,83,-11,245,-17,-8,-31,78,169,152,-5,-10,-11,56,256,180,0,-5,0,56,288,143,6,-5,4,67,270,86,11,-6,12,45,216,42,10,-4,8,18,132,35,8,0,5,-11,75,-4,notClockwise
88,67,143,-82,-977,-461,43,61,73,403,-977,-224,13,57,21,337,-802,27,1,48,-1,378,-609,192,-9,34,-19,321,-440,255,-33,-1,-64,263,-122,504,-35,-29,-59,12,276,646,-27,-53,-44,-95,573,497,-16,-72,-24,-312,764,394,-2,-79,7,-532,829,196,9,-56,27,-636,744,-103,18,-33,39,-644,538,-381,20,-15,47,-620,250,-540,29,11,61,-479,-34,-581,25,31,44,-351,-213,-635,23,45,45,-34,-340,-627,17,46,24,131,-456,-469,7,49,14,272,-531,-349,-6,40,-19,257,-554,-45,-9,33,-20,500,-551,-9,-22,14,-42,435,-490,177,-26,4,-42,336,-338,252,-19,-10,-46,348,-87,341,-15,-20,-30,277,145,202,-13,-24,-24,103,276,138,2,-18,0,27,350,192,4,-13,1,22,341,1,7,-7,15,-87,267,42,1,-2,14,-49,155,-51,2,0,16,-43,96,-24,notClockwise
114,54,107,64,-706,-553,54,49,58,100,-753,-172,28,72,21,297,-670,17,5,52,-1,334,-532,210,-3,44,-13,360,-403,202,-32,11,-54,336,-199,565,-34,-14,-62,226,139,559,-28,-57,-52,-23,406,577,-14,-70,-34,-233,619,447,0,-85,-7,-530,716,195,9,-71,15,-812,674,-63,20,-37,44,-714,544,-265,18,-26,51,-647,341,-532,22,2,59,-585,87,-644,16,26,47,-387,-156,-598,19,52,56,-36,-282,-745,5,48,26,119,-439,-572,4,61,18,308,-524,-455,-6,53,-4,469,-582,-260,-13,41,-20,548,-539,-32,-19,13,-44,452,-430,108,-13,-2,-39,320,-308,332,-13,-16,-47,205,-138,332,-1,-23,-34,99,89,284,1,-24,-25,52,260,292,3,-15,-5,38,332,226,0,-13,0,1,367,3,5,0,11,-50,347,59,0,0,14,-4,221,-36,0,-1,16,-31,127,26,notClockwise
57,45,150,43,-384,-265,34,55,80,149,-623,-62,13,66,37,236,-644,135,3,52,3,451,-561,194,-8,30,-22,317,-411,211,-27,4,-68,281,-183,391,-30,-25,-72,34,201,598,-28,-53,-62,-170,543,408,-8,-65,-32,-447,773,339,12,-69,9,-478,868,81,26,-54,28,-663,751,-25,29,-32,56,-544,489,-345,45,-13,74,-396,122,-577,29,5,64,-409,-114,-658,16,34,50,-273,-383,-607,13,44,54,51,-530,-637,7,53,19,214,-635,-542,-12,55,-3,280,-623,-231,-25,47,-25,457,-636,-86,-25,22,-39,353,-491,192,-35,9,-63,339,-253,285,-26,-16,-50,215,11,426,-17,-29,-47,48,239,279,0,-29,-15,13,357,366,5,-18,0,49,388,52,11,-11,17,-2,291,9,8,0,15,59,170,-30,6,3,16,81,97,-107,5,2,7,43,60,-19,0,1,0,3,20,-72,notClockwise
100,2,133,258,-289,-582,59,36,72,261,-418,-345,34,49,49,157,-557,-89,11,60,19,376,-488,59,-2,45,-1,292,-415,150,-31,33,-45,360,-318,375,-35,0,-62,174,-96,654,-33,-38,-63,84,257,563,-19,-71,-45,-266,503,631,-3,-80,-19,-412,666,256,7,-75,4,-718,708,200,13,-55,35,-671,611,-139,15,-29,51,-650,392,-394,11,-4,57,-555,114,-584,13,17,55,-406,-142,-618,6,38,48,-154,-320,-729,6,46,35,97,-413,-652,1,54,19,278,-461,-535,-1,50,-2,451,-463,-340,-9,43,-21,544,-408,-122,-10,18,-33,467,-346,50,-8,2,-39,380,-256,238,-11,-11,-52,261,-104,246,-6,-15,-43,132,56,222,-4,-22,-30,-19,205,320,4,-13,-6,9,307,222,0,-6,0,-43,330,103,7,-2,15,-32,268,19,9,-4,21,-29,190,107,7,-1,17,32,96,61,notClockwise
73,71,140,-96,-728,-360,29,73,70,60,-768,-21,0,86,37,600,-603,-16,-13,51,-24,417,-474,208,-19,32,-39,257,-263,242,-31,-5,-66,140,89,705,-23,-37,-67,44,474,433,-4,-77,-51,-440,682,560,12,-75,3,-570,778,330,28,-70,38,-631,691,100,26,-45,43,-607,461,-353,30,-17,57,-497,194,-512,27,6,60,-418,-88,-650,25,29,48,-195,-286,-709,11,46,42,24,-481,-631,1,59,32,283,-650,-510,-18,49,2,287,-732,-244,-31,42,-21,473,-645,-149,-37,24,-32,439,-517,72,-33,4,-53,402,-331,194,-26,-16,-57,233,-47,251,-15,-21,-39,193,221,276,0,-25,-24,20,358,247,5,-20,-8,6,415,120,10,-17,10,-73,406,100,12,-5,21,-51,305,11,14,-1,21,-55,151,45,7,3,17,9,59,-69,3,1,9,0,-14,-21,0,3,1,32,-35,-11,notClockwise
103,30,129,-278,-839,-465,39,85,74,240,-834,-245,4,79,16,473,-725,-66,-7,60,-24,365,-550,234,-17,31,-37,317,-339,312,-38,2,-64,247,17,569,-30,-40,-67,26,404,495,-10,-72,-46,-305,693,608,1,-82,-8,-491,847,393,16,-71,21,-637,819,116,22,-42,40,-642,623,-219,30,-21,52,-612,356,-401,23,1,57,-531,79,-487,26,23,62,-395,-214,-617,30,48,63,-106,-408,-646,17,46,42,112,-512,-592,0,47,23,337,-662,-419,-11,42,-1,462,-695,-223,-23,29,-28,593,-560,-205,-32,4,-51,399,-404,79,-25,3,-48,380,-266,179,-22,-13,-52,117,-36,308,-14,-11,-32,115,147,178,-4,-17,-13,17,250,283,-4,-13,-7,-4,270,137,-2,-16,1,-37,277,182,5,-7,13,32,273,-11,7,-7,12,-38,220,20,5,0,9,-29,127,-29,7,0,11,4,77,-32,notClockwise
80,53,130,120,-1048,-262,34,56,54,406,-856,-152,6,55,11,376,-705,1,-6,36,-9,355,-507,141,-15,31,-25,279,-336,215,-39,-1,-51,148,17,422,-39,-18,-49,-69,320,531,-24,-44,-34,-125,569,473,-6,-49,-19,-300,715,353,12,-66,8,-453,754,326,25,-46,17,-497,642,52,32,-43,33,-484,464,-276,33,-23,49,-564,164,-400,29,-4,59,-437,-106,-494,19,21,54,-301,-281,-638,15,36,46,-66,-430,-708,4,49,29,143,-536,-575,-3,51,9,261,-541,-421,-10,43,-11,399,-516,-210,-16,32,-31,344,-545,-24,-18,20,-39,446,-489,71,-18,0,-51,151,-327,380,-18,-4,-42,220,-76,320,-17,-18,-36,139,156,309,-4,-19,-17,155,343,77,-2,-20,-10,-40,465,278,5,-13,10,85,431,52,8,-13,10,-33,329,-85,9,1,13,-87,162,-30,3,3,11,-21,69,-35,notClockwise
78,69,115,401,-1116,-331,28,72,46,312,-845,2,2,65,-2,480,-697,140,-9,36,-21,316,-520,329,-14,21,-32,286,-322,272,-34,-11,-58,111,102,578,-32,-38,-55,-19,420,468,-14,-64,-33,-270,694,498,0,-64,-6,-416,815,261,16,-60,17,-641,781,97,23,-41,40,-597,583,-209,33,-27,56,-602,290,-437,30,-4,60,-551,-7,-576,29,20,59,-304,-280,-636,14,38,58,-27,-435,-686,7,45,34,108,-572,-548,-6,49,10,288,-576,-521,-13,50,-4,464,-587,-307,-22,34,-28,420,-515,-80,-16,19,-45,359,-455,119,-18,5,-52,288,-261,268,-11,-5,-39,275,-68,236,-12,-18,-35,92,171,373,-3,-19,-20,87,344,313,0,-22,-5,43,424,242,5,-14,12,-4,370,66,6,-9,11,-58,279,36,8,-3,17,-16,168,-21,4,0,14,-40,44,-31,1,3,8,7,-6,-35,notClockwise
93,34,129,-81,-534,-536,53,47,80,263,-582,-329,29,63,37,465,-622,-191,11,42,6,384,-539,-13,2,39,-6,271,-448,110,-28,16,-55,284,-285,445,-35,-12,-63,5,12,606,-33,-49,-54,-235,356,620,-21,-61,-37,-377,614,625,-9,-75,-13,-507,790,351,9,-67,16,-643,820,183,16,-47,35,-592,646,-251,20,-23,45,-600,373,-472,19,2,56,-511,101,-623,20,19,54,-297,-145,-703,21,40,46,-142,-374,-679,17,50,32,47,-534,-563,6,56,19,393,-557,-445,-6,42,-5,542,-610,-249,-15,37,-32,421,-599,2,-21,19,-35,568,-404,208,-27,-2,-48,398,-159,176,-20,-16,-48,197,-12,227,-9,-17,-34,61,215,338,-4,-23,-15,82,372,190,-3,-19,-3,-46,371,148,7,-11,10,11,303,-8,10,-7,15,-65,244,6,11,1,15,-42,134,18,9,2,13,0,43,-44,notClockwise
101,-9,139,144,-860,-841,50,61,80,371,-847,-444,17,77,9,359,-775,-37,3,59,-10,329,-658,289,-10,23,-32,242,-483,297,-36,7,-64,134,-116,606,-37,-34,-68,-55,290,728,-29,-73,-44,-213,648,644,-17,-83,-20,-401,898,350,4,-68,15,-567,947,53,17,-42,27,-606,770,-220,25,-28,59,-518,436,-491,26,-5,56,-546,103,-585,28,17,63,-388,-227,-617,16,39,49,-146,-405,-659,11,42,44,147,-511,-618,-4,47,8,158,-564,-425,-12,46,2,326,-604,-243,-14,38,-15,482,-520,-64,-9,21,-27,516,-450,63,-17,4,-45,316,-401,232,-13,-2,-48,393,-203,298,-5,-16,-43,252,54,217,-9,-21,-39,94,244,188,-9,-22,-22,-22,342,193,-3,-14,1,-40,453,-12,2,-8,15,-130,426,89,5,0,21,-46,312,0,7,0,20,-34,153,-44,6,3,15,-11,59,-21,notClockwise
78,-34,133,-7,-391,-469,67,17,73,38,-428,-436,42,53,53,200,-643,-198,11,61,14,434,-620,-35,3,50,-9,232,-541,225,-23,36,-56,297,-409,394,-39,4,-66,147,-108,722,-38,-38,-72,-33,321,581,-19,-71,-45,-372,614,720,-15,-84,-22,-472,852,381,7,-65,14,-692,963,98,20,-48,28,-776,817,-200,24,-26,45,-660,555,-498,31,-1,67,-542,156,-616,42,24,77,-350,-181,-751,23,38,49,-98,-475,-701,12,55,51,279,-711,-712,1,61,30,462,-806,-451,-15,47,-19,482,-759,-185,-30,33,-43,596,-652,-4,-30,10,-52,512,-446,228,-27,-9,-62,361,-131,260,-21,-26,-56,149,137,405,-13,-26,-29,87,422,269,-2,-25,-10,-17,517,189,7,-14,15,-40,461,80,7,-9,20,-59,318,52,10,-2,21,-62,181,-29,8,1,13,-45,57,-16,3,2,5,-111,-6,-16,notClockwise
120,12,102,854,-655,-720,44,29,85,392,-596,-326,15,65,30,469,-686,-97,2,50,2,420,-605,143,-7,39,-14,487,-458,107,-43,16,-62,252,-176,509,-35,-10,-74,140,154,579,-28,-56,-58,-142,552,670,-13,-67,-36,-314,811,415,3,-76,-2,-610,921,206,26,-59,29,-741,848,-36,27,-37,51,-692,552,-347,37,-8,67,-570,193,-603,33,14,69,-466,-96,-697,22,36,56,-231,-338,-693,15,50,54,56,-516,-685,8,52,28,262,-618,-465,-6,44,0,380,-644,-263,-15,31,-23,474,-692,-41,-22,11,-47,383,-619,138,-32,2,-53,346,-452,265,-27,-10,-57,248,-137,299,-19,-13,-43,204,148,291,-17,-21,-27,105,382,256,-2,-13,-1,100,482,79,8,-17,8,69,456,83,8,-9,15,-20,309,-31,7,-6,16,-34,178,-39,11,3,16,-7,90,-52,6,4,8,-4,19,-54,notClockwise
74,-40,131,176,-477,-277,64,36,76,99,-488,-227,37,35,53,149,-692,-101,10,56,12,428,-647,-14,2,37,-11,228,-543,207,-26,40,-54,286,-335,409,-44,-5,-70,163,-27,626,-40,-28,-73,-31,418,515,-25,-65,-47,-403,732,689,-12,-68,-16,-491,909,397,13,-69,11,-729,907,53,31,-47,42,-763,718,-190,33,-29,53,-654,429,-532,37,-2,59,-545,55,-669,37,23,70,-285,-226,-789,25,42,55,-48,-427,-720,4,55,37,317,-617,-663,-8,62,21,439,-690,-377,-19,48,-1,588,-651,-153,-30,23,-38,515,-559,123,-32,2,-46,450,-481,251,-26,-15,-53,277,-205,283,-18,-24,-49,139,48,292,-10,-27,-34,35,260,315,-2,-19,-9,59,363,143,5,-10,7,14,394,1,7,-2,14,-46,305,57,10,-2,16,19,179,-7,10,0,16,-18,98,3,4,1,7,-23,31,-27,notClockwise
101,2,123,-38,-541,-543,52,54,88,116,-634,-232,12,77,28,376,-634,-3,0,64,0,299,-549,296,-13,42,-16,345,-373,297,-39,18,-59,284,-135,597,-41,-19,-78,116,209,583,-22,-66,-61,-190,548,699,-7,-89,-38,-439,803,373,16,-89,-6,-696,848,68,38,-57,32,-780,732,-239,41,-36,58,-752,462,-479,35,-5,69,-641,124,-659,33,32,79,-373,-213,-766,19,55,65,-117,-435,-745,-6,54,43,191,-586,-602,-16,57,17,382,-619,-436,-17,52,0,557,-598,-218,-29,27,-34,564,-523,1,-29,7,-47,456,-428,244,-22,-5,-51,390,-190,263,-16,-23,-50,243,31,291,-13,-29,-35,42,224,308,-2,-25,-10,14,346,263,2,-14,5,1,377,13,8,-8,14,-52,295,76,9,0,19,-28,181,17,9,2,15,23,91,-21,4,1,6,4,40,-18,3,0,4,20,13,-10,notClockwise
88,55,126,87,-648,-474,45,57,83,145,-562,-271,14,57,48,331,-544,-114,-6,65,11,512,-488,42,-15,37,-12,415,-419,155,-36,22,-59,399,-201,495,-38,-19,-79,96,98,669,-13,-51,-70,-295,516,593,17,-87,-47,-690,771,484,37,-76,-2,-870,874,191,45,-70,35,-999,708,-47,49,-27,74,-788,392,-497,27,10,72,-532,-52,-706,12,41,83,-215,-344,-830,-9,60,62,193,-525,-676,-17,57,34,437,-656,-571,-31,50,-8,593,-674,-303,-31,28,-29,709,-556,-147,-39,9,-62,537,-398,74,-21,-16,-61,379,-168,306,-20,-21,-53,117,145,318,-5,-26,-27,32,360,206,5,-22,-3,-81,403,237,13,-17,17,-29,316,108,6,-6,15,-151,203,106,8,1,16,24,113,-27,5,1,7,-14,50,-26,1,4,2,62,10,-43,-2,0,0,0,48,1,0,0,0,8,37,-23,notClockwise
84,24,146,-83,-446,-302,35,50,72,225,-542,-191,11,56,40,337,-608,-41,-3,56,-1,413,-536,132,-12,38,-27,241,-409,329,-42,10,-75,179,-118,529,-30,-22,-72,-24,300,608,-7,-57,-69,-283,708,468,11,-81,-31,-658,904,488,33,-78,17,-657,949,27,47,-54,49,-666,676,-326,42,-22,70,-579,265,-653,34,12,78,-431,-120,-740,19,43,73,-87,-424,-828,-3,61,54,158,-675,-716,-9,72,30,396,-790,-517,-26,54,-17,567,-793,-206,-37,33,-41,456,-670,106,-34,9,-56,505,-421,243,-25,-18,-63,305,-87,392,-15,-36,-46,153,199,286,-1,-32,-20,-54,379,378,3,-22,2,70,406,119,9,-14,12,-101,365,57,12,-1,16,-53,234,-41,6,5,12,-40,138,-10,2,4,11,-14,74,-46,0,4,7,7,42,17,1,0,1,38,9,1,0,0,0,27,-4,3,notClockwise
89,64,133,310,-790,-850,18,83,51,191,-701,-221,-5,77,7,303,-614,123,-16,51,-13,261,-481,390,-24,25,-25,246,-271,213,-39,-1,-63,91,74,644,-25,-39,-59,15,427,573,-3,-68,-44,-236,723,513,17,-74,-12,-447,862,170,38,-58,17,-580,806,-78,48,-47,46,-600,558,-314,44,-22,60,-562,239,-535,37,2,67,-440,-85,-593,27,31,64,-174,-325,-648,8,43,51,-7,-541,-537,-11,54,31,182,-708,-479,-20,52,7,354,-765,-240,-29,37,-10,437,-694,-49,-35,17,-40,391,-563,60,-35,1,-54,336,-381,223,-18,-13,-48,294,-36,200,-18,-22,-48,101,207,263,-9,-17,-27,72,322,113,-1,-18,-8,0,382,113,9,-10,9,-4,398,64,2,-3,6,-51,278,-9,11,0,20,5,187,13,7,0,13,-10,113,13,4,2,7,20,35,-57,3,0,3,-3,-2,13,notClockwise
91,12,155,-7,-538,-316,55,39,99,330,-660,-325,10,63,38,403,-721,-188,0,65,1,333,-652,90,-18,45,-30,250,-435,384,-43,15,-69,222,-91,518,-39,-13,-85,-70,313,582,-9,-57,-65,-280,696,597,6,-86,-29,-517,920,610,34,-86,18,-616,918,84,46,-56,42,-737,639,-223,46,-28,75,-601,291,-553,29,1,74,-472,-5,-739,24,34,72,-212,-245,-839,6,53,57,33,-523,-705,-5,61,32,285,-742,-575,-21,54,-7,520,-822,-369,-25,41,-30,475,-780,-36,-46,19,-61,471,-671,112,-37,5,-60,330,-313,428,-26,-17,-53,296,127,322,-11,-28,-37,49,408,329,-4,-27,-10,21,490,247,10,-24,13,-10,508,237,14,-19,17,5,347,-18,11,-6,17,-105,167,-20,2,1,15,-24,52,-27,1,2,8,15,16,-54,2,5,4,-2,2,-95,-3,3,-2,10,-3,-8,notClockwise
83,17,143,50,-430,-539,41,42,90,348,-522,-374,12,75,37,412,-600,-129,6,55,8,296,-537,150,-4,44,-14,308,-368,249,-25,15,-66,181,-155,501,-25,-15,-68,-14,164,650,-16,-66,-55,-216,507,718,-6,-79,-36,-414,716,475,8,-89,1,-631,806,199,18,-60,32,-706,725,-101,31,-29,64,-690,422,-446,25,-3,70,-506,78,-598,15,15,68,-254,-164,-800,11,39,50,-111,-449,-690,2,49,42,231,-589,-618,-19,40,-1,417,-586,-493,-14,44,-20,341,-575,-231,-12,34,-30,389,-524,9,-25,22,-42,427,-357,74,-22,3,-50,282,-194,195,-9,-6,-41,184,22,346,-8,-19,-30,113,239,298,-4,-14,-18,32,351,158,10,-19,1,1,360,197,10,-12,11,-27,310,92,9,-5,14,-11,208,28,6,-2,15,24,121,-53,7,0,12,10,61,-16,2,2,4,-9,12,-23,notClockwise
79,5,149,55,-452,-349,48,33,84,233,-630,-250,23,49,40,291,-687,-87,1,57,9,259,-597,120,-12,40,-13,325,-456,248,-40,23,-68,230,-247,481,-42,-8,-76,64,155,610,-32,-43,-68,-162,580,642,-6,-76,-44,-293,873,447,19,-82,-5,-604,983,245,43,-65,34,-671,879,-80,41,-46,56,-617,517,-395,40,-19,75,-504,134,-677,28,13,75,-438,-225,-699,16,42,63,-233,-506,-684,-3,59,53,117,-670,-646,-13,64,19,317,-724,-431,-24,53,-13,384,-710,-170,-27,31,-33,576,-553,-51,-33,5,-55,484,-348,90,-26,-12,-61,323,-114,237,-18,-22,-50,111,163,310,-5,-18,-26,100,367,109,-4,-14,-11,-77,389,248,8,-4,12,22,342,93,10,-4,14,-18,258,100,15,0,19,42,152,43,8,-2,10,12,39,10,9,0,6,27,-10,-2,2,-3,0,12,-17,6,notClockwise
70,11,143,-427,-433,-189,45,55,90,315,-606,-280,11,73,53,370,-667,-74,-4,66,3,343,-728,257,-20,53,-31,320,-533,487,-34,20,-85,306,-125,523,-30,-24,-96,-50,375,598,-2,-71,-84,-276,785,691,19,-91,-38,-573,1147,422,45,-95,20,-763,1126,102,51,-58,70,-776,707,-333,39,-22,88,-732,214,-586,28,13,96,-500,-200,-786,16,44,83,-229,-511,-853,1,66,64,116,-734,-820,-13,71,28,406,-906,-542,-27,54,-10,611,-923,-365,-39,39,-46,622,-770,-32,-45,9,-65,517,-492,155,-44,-15,-75,409,-96,315,-31,-35,-56,153,321,420,-7,-30,-23,73,581,178,3,-25,0,-88,611,277,14,-13,21,18,459,38,18,-8,26,-115,246,115,13,2,19,-7,85,-25,8,1,11,-39,0,27,4,0,6,32,-20,-17,0,-3,0,-11,-24,12,0,0,-1,30,-7,-28,notClockwise
68,38,143,-51,-470,-145,33,56,74,252,-661,-72,8,57,35,384,-651,24,-8,47,0,314,-544,216,-19,33,-15,275,-401,310,-36,4,-65,264,-160,434,-41,-21,-65,32,255,461,-23,-47,-66,-125,591,553,1,-71,-38,-333,811,468,24,-76,-4,-539,880,181,34,-57,22,-704,762,-4,43,-45,45,-691,419,-341,43,-10,79,-701,114,-517,28,18,72,-541,-221,-682,19,49,59,-259,-506,-769,9,63,58,76,-697,-691,-2,77,29,389,-783,-542,-22,48,-13,582,-820,-207,-27,31,-45,624,-671,-92,-36,7,-58,527,-444,137,-38,-13,-66,379,-115,311,-26,-31,-59,164,232,303,-19,-25,-38,1,445,181,-4,-15,3,-8,516,187,6,-11,14,-19,492,132,12,-1,19,-2,313,37,13,-1,19,16,147,6,14,0,14,18,68,1,9,0,6,31,-3,-6,2,-3,0,5,-20,17,notClockwise
68,41,136,233,-414,-633,46,71,86,412,-636,-357,17,81,34,468,-638,-22,-4,66,-11,359,-579,335,-14,34,-31,307,-388,408,-34,-6,-71,133,-74,650,-34,-45,-75,-102,374,648,-13,-83,-55,-378,752,605,13,-91,-8,-525,1009,246,32,-80,26,-745,952,-92,39,-37,59,-731,618,-501,36,-8,68,-531,167,-731,32,24,77,-478,-216,-796,21,47,59,-261,-521,-734,10,68,47,130,-717,-602,0,70,20,418,-800,-433,-6,49,-10,435,-764,-123,-27,33,-42,576,-713,25,-35,1,-55,502,-590,269,-43,-11,-63,371,-224,338,-30,-33,-54,166,200,319,-24,-22,-32,40,459,193,-4,-26,-3,13,575,245,2,-10,14,-36,581,17,15,-8,26,-61,393,7,11,3,22,-52,168,-54,13,3,20,7,23,-9,2,5,6,1,-13,5,2,1,3,50,-17,-60,0,-2,-2,12,-24,29,notClockwise
76,-2,153,29,-44,-559,63,31,99,158,-463,-459,46,61,77,464,-633,-357,20,67,17,318,-688,-69,6,53,-10,283,-630,220,-26,31,-83,224,-443,608,-37,-10,-94,26,76,700,-32,-57,-100,-339,559,797,-12,-86,-55,-477,960,753,6,-98,-10,-718,1195,357,38,-70,46,-842,1011,-101,39,-38,63,-789,539,-537,35,5,83,-681,43,-860,33,40,88,-410,-375,-962,22,81,73,52,-726,-921,-7,87,50,546,-911,-733,-27,66,-4,642,-916,-373,-35,47,-34,769,-715,-26,-47,5,-66,640,-458,256,-39,-29,-66,488,-114,293,-28,-51,-61,42,249,509,-4,-29,-16,40,469,254,2,-32,-2,-26,521,253,11,-12,19,-54,462,-7,6,-3,14,-103,303,33,12,5,21,12,121,-26,5,0,11,5,26,-37,4,3,7,-14,-24,27,0,0,0,26,-25,-30,0,-1,-1,-6,-21,28,notClockwise
-4,0,-8,-33,23,-45,0,-1,0,-1,19,-16,36,-8,35,-41,-159,-187,25,14,35,-16,-290,-203,14,29,22,78,-380,-161,4,42,8,48,-458,137,-4,52,-8,164,-500,248,-48,37,-54,251,-279,526,-50,2,-73,135,79,604,-35,-35,-71,-23,511,672,-12,-65,-52,-54,862,646,17,-96,-19,-361,1066,201,47,-75,14,-567,978,-135,61,-55,54,-578,671,-450,53,-25,87,-538,193,-681,50,14,92,-499,-289,-784,18,49,78,-201,-616,-807,-3,66,56,98,-807,-709,-24,76,17,300,-859,-386,-36,63,-32,374,-690,-44,-44,26,-44,518,-450,50,-43,6,-54,441,-170,143,-30,-16,-45,309,78,350,-12,-34,-34,179,279,369,-1,-33,-9,97,347,178,1,-18,0,-43,317,137,13,-10,11,-72,221,61,15,-5,15,-97,147,109,8,0,14,-58,72,30,6,2,10,-27,27,24,notClockwise
1,-2,0,146,37,-48,1,-1,2,65,2,-25,35,-10,40,49,-130,-192,22,14,33,-21,-289,-193,10,35,21,64,-377,-112,0,43,4,68,-485,192,-14,44,-25,268,-468,218,-47,27,-66,234,-251,486,-42,-12,-73,144,111,615,-26,-54,-71,-22,502,685,-4,-78,-45,-193,847,456,18,-91,1,-493,998,113,40,-70,30,-655,858,-222,48,-35,65,-592,541,-610,44,9,87,-420,122,-739,26,41,74,-283,-279,-844,11,68,58,-55,-597,-670,-6,75,43,293,-757,-425,-22,58,-4,405,-769,-202,-35,25,-41,381,-610,42,-39,8,-47,388,-374,163,-29,-15,-49,334,-110,248,-23,-23,-44,169,125,267,-12,-20,-24,121,299,149,-1,-16,-2,14,346,161,11,-14,11,18,273,120,10,-5,12,-69,174,84,13,-2,13,-50,106,30,8,-2,10,-48,51,53,6,0,6,5,17,-17,notClockwise
2,1,-2,12,-30,-20,1,2,-1,0,-30,-13,20,41,29,166,-542,-32,2,44,5,226,-478,105,-16,34,-7,184,-424,297,-43,26,-25,287,-355,436,-38,2,-30,251,-181,421,-45,-34,-53,83,350,458,-25,-62,-39,-102,621,507,9,-73,-17,-265,845,115,38,-75,7,-542,847,-23,44,-43,25,-577,670,-306,46,-26,53,-496,373,-514,36,3,60,-451,45,-546,21,23,60,-311,-303,-532,19,45,59,-84,-465,-563,3,45,48,160,-597,-488,-7,46,13,87,-635,-247,-4,35,-3,286,-641,-145,-21,24,-30,309,-473,-75,-21,9,-40,260,-370,-23,-25,5,-55,131,-153,219,-19,-3,-43,180,56,189,-21,-5,-32,87,249,148,-3,-7,-12,90,310,216,-1,-6,-3,81,348,103,11,-11,11,26,274,188,10,-6,13,33,184,58,12,-5,11,-3,110,53,9,0,9,-4,42,-3,notClockwise
0,-3,-3,27,9,-22,-1,-2,-3,20,-16,8,25,29,37,-27,-286,-138,11,40,24,97,-396,0,0,42,-1,241,-401,121,-13,27,-18,222,-397,433,-28,17,-38,239,-280,315,-46,-21,-63,184,64,647,-34,-52,-61,-8,445,558,-12,-78,-32,-301,741,461,9,-75,-3,-446,865,81,39,-61,30,-603,832,-183,41,-40,51,-592,566,-506,45,-4,66,-539,185,-684,32,23,65,-453,-184,-708,22,50,59,-163,-473,-694,7,55,43,120,-710,-520,3,57,14,298,-760,-375,-17,37,-14,386,-707,-185,-21,30,-34,474,-586,-108,-31,11,-51,347,-367,52,-31,1,-53,186,-92,245,-28,-6,-44,111,155,266,-12,-10,-23,67,334,258,-1,-18,-4,33,423,261,11,-12,9,19,374,274,13,-11,16,37,267,91,15,-6,17,13,148,56,11,-2,10,22,55,-26,5,0,4,10,1,-24,notClockwise
1,3,2,-32,-38,-12,-3,1,0,-8,-14,-4,34,-1,39,-17,-116,-162,26,22,35,51,-259,-134,6,40,19,143,-337,-62,-4,46,4,222,-421,244,-17,38,-18,215,-440,341,-53,12,-63,218,-245,605,-50,-26,-70,21,129,592,-26,-67,-66,-171,535,567,-2,-87,-40,-396,853,464,20,-86,-4,-587,1017,-40,46,-44,39,-638,847,-324,49,-17,63,-494,492,-644,40,13,69,-480,66,-735,27,41,72,-259,-314,-697,15,55,58,54,-578,-680,5,50,31,239,-689,-516,-7,43,-2,231,-689,-246,-11,34,-13,402,-631,-94,-19,18,-39,377,-494,42,-23,10,-49,265,-350,214,-27,-6,-48,185,-96,330,-20,-11,-35,198,123,315,-15,-18,-21,149,316,221,-6,-21,-6,62,381,252,5,-18,9,60,374,119,9,-13,14,-13,274,89,9,-4,15,-15,178,-41,8,-1,12,-64,66,5,notClockwise
3,3,0,53,-40,6,0,0,0,32,-20,-10,30,19,39,-26,-321,-143,18,37,25,95,-462,-34,0,42,-2,226,-494,149,-16,32,-19,152,-510,534,-37,14,-37,207,-368,472,-53,-17,-61,147,64,650,-44,-52,-58,3,515,478,-19,-79,-29,-199,889,483,6,-81,-2,-337,1034,-33,34,-58,24,-493,930,-272,38,-38,41,-476,581,-557,36,-7,61,-439,187,-699,31,12,57,-475,-188,-600,19,40,52,-252,-455,-640,17,44,49,-21,-603,-497,4,56,27,95,-625,-452,-3,48,0,207,-634,-191,-14,40,-21,337,-518,-63,-16,21,-30,350,-358,81,-25,9,-40,307,-183,174,-16,-5,-38,251,-2,253,-12,-14,-31,185,170,256,-5,-15,-10,117,208,231,0,-12,-5,82,218,103,5,-8,0,-10,180,135,5,-6,2,16,149,46,5,-4,6,-10,114,66,4,-1,4,10,89,-2,notClockwise
5,1,4,-41,-7,-30,3,1,2,10,4,-28,35,3,45,-9,-133,-104,25,20,35,62,-299,-96,10,28,22,87,-400,-21,-4,40,1,239,-466,161,-14,35,-15,245,-453,304,-50,17,-59,307,-194,438,-46,-16,-66,129,173,557,-30,-46,-60,-5,565,507,-6,-73,-34,-292,806,558,9,-83,-4,-522,894,136,31,-62,28,-660,738,-97,35,-39,55,-664,472,-432,31,-7,64,-593,110,-592,26,26,69,-387,-180,-719,18,43,47,-109,-380,-785,13,55,36,78,-505,-581,2,54,9,308,-595,-439,-3,43,-5,325,-621,-178,-20,26,-34,317,-536,47,-14,19,-26,350,-417,179,-25,2,-43,309,-206,183,-25,-6,-39,218,13,331,-19,-14,-32,246,267,219,-5,-21,-11,166,356,154,-5,-18,-5,48,342,124,7,-15,7,-46,231,63,11,-7,11,-46,161,18,9,-1,10,-75,79,8,notClockwise
3,1,6,72,-14,20,1,-4,1,31,-6,13,32,12,40,40,-254,-154,17,21,30,59,-372,-89,-1,35,8,134,-409,29,-14,33,-10,142,-439,338,-28,27,-30,108,-359,338,-45,0,-60,151,9,555,-32,-32,-65,46,430,491,-5,-65,-40,-149,790,426,12,-76,-7,-283,953,225,31,-68,25,-362,886,-191,33,-39,47,-400,590,-423,27,-16,63,-418,179,-512,20,12,60,-366,-190,-563,10,36,46,-185,-388,-465,9,40,38,19,-547,-512,-3,33,19,31,-573,-236,1,40,2,224,-560,-278,-8,29,-19,329,-485,-164,-7,22,-27,158,-411,-24,-18,23,-44,278,-263,90,-16,9,-39,182,-60,182,-25,-2,-34,105,121,197,-20,-11,-17,76,249,363,-8,-18,-5,171,273,85,2,-24,6,-45,290,238,10,-12,9,9,170,56,16,-7,9,-2,113,-30,17,0,7,-3,36,-27,notClockwise
-2,-8,1,-7,16,-64,-3,-5,-2,-4,15,-27,28,8,44,-74,-68,-115,17,26,34,-3,-245,-80,6,42,20,143,-350,11,-11,44,-12,106,-397,316,-14,33,-28,221,-317,371,-40,1,-71,199,-69,527,-32,-28,-70,85,315,526,-15,-70,-54,-144,660,576,7,-85,-8,-208,843,246,18,-76,22,-441,811,-78,28,-53,54,-437,604,-398,31,-31,67,-459,243,-523,30,10,70,-366,-83,-693,21,35,60,-237,-370,-643,11,52,43,-49,-556,-609,7,59,18,108,-697,-325,-12,55,-6,274,-650,-229,-22,32,-30,232,-562,-62,-22,22,-35,284,-456,96,-27,4,-45,261,-287,215,-24,-3,-36,215,-76,158,-16,-11,-32,139,127,282,-13,-13,-17,167,284,233,-5,-18,-13,98,392,125,6,-17,7,28,382,130,5,-14,8,-47,312,89,11,-10,18,-64,186,16,11,-4,17,-55,52,-61,notClockwise
-3,6,-8,-4,-27,13,-2,5,0,31,-2,27,27,-5,48,-94,-133,-122,16,33,31,62,-282,-169,0,49,7,170,-387,-34,-5,40,-15,175,-420,315,-22,26,-40,126,-298,441,-44,10,-73,202,-6,448,-32,-37,-71,-17,358,561,-6,-73,-45,-197,725,554,6,-75,-9,-294,904,382,29,-66,31,-326,804,-159,37,-46,49,-394,556,-351,29,-24,60,-356,291,-575,23,2,69,-287,-38,-649,19,30,61,-120,-307,-692,14,39,50,0,-499,-578,8,53,25,55,-622,-373,5,45,6,182,-703,-241,-11,32,-25,189,-629,-149,-13,17,-31,138,-524,17,-23,12,-49,145,-390,159,-24,3,-43,115,-174,205,-23,3,-39,127,71,185,-14,0,-22,129,248,288,-11,-8,-18,136,345,192,4,-12,1,61,393,290,8,-14,8,96,338,97,10,-14,15,0,214,66,10,-9,14,18,77,-11,notClockwise
5,0,3,-100,-4,-2,1,0,2,-46,-27,-63,20,41,35,-39,-307,-118,3,50,17,184,-374,-10,-3,37,-4,93,-360,230,-20,35,-26,199,-320,413,-28,17,-38,180,-161,428,-35,-22,-58,101,217,516,-23,-51,-54,-72,551,594,-6,-68,-24,-122,791,343,12,-80,7,-382,841,-12,36,-62,29,-497,709,-184,29,-38,42,-489,446,-486,35,-14,65,-445,73,-582,30,15,62,-344,-248,-663,24,42,57,-125,-480,-628,7,56,46,111,-643,-504,0,54,22,265,-725,-360,-17,43,-10,316,-609,-193,-25,29,-29,255,-475,7,-29,21,-42,287,-285,126,-24,-4,-45,188,-99,303,-15,-12,-33,141,117,198,-8,-13,-22,72,217,262,-1,-10,-10,114,275,117,5,-15,0,57,229,148,2,-4,4,6,193,59,5,-4,6,4,129,-2,6,-4,7,-41,67,12,3,-2,6,5,14,14,notClockwise
-5,-10,-2,-79,34,26,-2,-3,1,-37,36,-4,33,-16,41,-27,-28,-220,34,11,39,-90,-238,-200,23,32,26,-52,-398,-38,10,54,1,142,-535,213,-5,37,-33,207,-489,208,-47,28,-80,169,-237,482,-50,-10,-82,177,207,711,-39,-51,-72,97,652,574,-16,-83,-36,-221,950,471,10,-77,18,-343,998,149,34,-65,52,-398,799,-193,35,-40,66,-483,483,-458,33,-9,75,-397,96,-569,23,18,74,-273,-230,-684,13,41,57,-109,-500,-618,1,51,41,148,-656,-457,-6,43,10,228,-663,-328,-14,35,-10,222,-549,-192,-16,19,-26,290,-444,-90,-21,10,-42,156,-293,2,-16,4,-43,61,-117,139,-14,7,-35,85,20,168,-11,-1,-26,94,112,135,-6,-4,-17,57,216,271,1,-11,-3,76,250,144,7,-8,5,29,226,142,10,-10,10,52,144,97,9,-4,8,25,86,30,notClockwise
3,-8,7,41,21,12,0,-6,0,8,25,-34,32,-16,45,-6,-75,-208,33,4,35,-124,-213,-187,23,31,23,-6,-336,-103,11,44,3,26,-480,145,1,43,-23,195,-517,173,-38,29,-73,202,-300,483,-48,-1,-75,238,59,518,-43,-45,-68,79,458,655,-22,-66,-42,-61,786,513,-9,-77,8,-282,937,264,12,-65,35,-479,795,5,22,-40,58,-526,572,-288,29,-18,59,-460,254,-453,16,1,55,-298,-10,-621,17,18,43,-266,-226,-570,12,41,41,15,-337,-601,7,40,16,90,-468,-425,0,45,16,251,-515,-334,2,33,3,213,-536,-77,-4,31,-15,339,-507,-166,-9,11,-35,244,-408,175,-15,6,-35,280,-233,54,-21,-7,-44,139,-17,224,-19,-6,-33,106,134,80,-12,-12,-23,2,235,213,-4,-6,-4,9,267,191,4,-8,4,32,252,81,9,-6,11,0,176,86,notClockwise
5,-1,4,3,-10,1,5,1,5,5,-21,-16,32,-29,43,-118,-120,-196,33,4,37,-91,-299,-294,29,31,18,-15,-382,-157,19,40,3,49,-503,142,-1,42,-25,185,-471,322,-39,40,-62,302,-244,378,-47,-2,-65,254,101,652,-51,-44,-49,101,414,671,-40,-64,-31,0,675,615,-16,-79,9,-243,740,148,5,-68,22,-423,669,-70,15,-40,36,-486,500,-274,10,-25,39,-335,340,-516,21,-10,47,-364,124,-545,21,14,43,-294,-14,-488,18,28,36,-198,-149,-440,12,31,33,-40,-230,-533,20,44,24,0,-347,-312,9,40,6,101,-422,-173,4,32,-5,218,-468,-97,4,25,-11,326,-462,-26,-1,17,-24,303,-423,-16,-11,2,-30,258,-294,176,-14,0,-31,232,-114,141,-19,0,-37,129,41,101,-15,-3,-25,72,153,103,-10,-5,-17,30,223,144,-1,-5,-5,0,215,111,notClockwise
23,-16,17,-90,138,33,14,-7,10,3,95,-7,41,-23,45,28,-8,-189,36,7,49,-28,-173,-222,22,43,27,108,-290,-107,0,42,9,-37,-448,296,-10,46,-18,210,-458,357,-47,26,-66,171,-247,522,-45,-11,-83,125,120,487,-27,-69,-73,-77,548,801,-3,-79,-45,-16,922,333,11,-101,6,-356,1007,-23,38,-64,43,-421,789,-309,41,-41,74,-463,427,-536,30,-8,84,-431,23,-628,23,21,75,-297,-348,-727,17,50,54,-123,-562,-696,5,56,41,21,-673,-483,-10,59,-1,222,-662,-343,-22,48,-27,259,-522,-164,-28,41,-47,296,-338,-3,-33,21,-49,230,-126,259,-27,2,-47,180,84,329,-18,-12,-28,142,236,324,-1,-17,-11,126,254,258,9,-28,7,71,225,235,15,-20,9,9,162,124,11,-11,9,13,98,22,9,-4,5,-36,55,-13,4,0,8,9,34,-36,notClockwise
-1,-5,-4,1,23,-42,1,-2,-2,-27,0,10,30,4,45,-32,-110,-85,20,25,35,51,-287,-71,3,41,12,210,-370,-18,-8,35,-8,176,-431,283,-25,22,-29,189,-366,374,-46,-1,-66,155,-130,509,-38,-37,-67,5,233,462,-21,-71,-48,-242,587,472,0,-73,-17,-320,795,317,20,-72,9,-458,815,-93,27,-42,35,-534,662,-299,28,-15,57,-484,372,-528,26,7,61,-413,46,-613,24,33,59,-274,-227,-671,23,53,59,29,-479,-564,20,52,38,172,-684,-434,4,55,4,326,-742,-256,-9,41,-21,471,-660,-88,-26,25,-43,368,-467,-9,-32,7,-56,305,-239,251,-37,-8,-56,249,72,285,-24,-24,-41,113,308,110,-8,-21,-16,-38,384,290,4,-20,4,42,333,126,10,-11,14,-58,285,107,15,-2,19,-56,157,66,12,1,16,-23,62,41,8,0,11,3,18,0,notClockwise
-7,1,-2,-6,-28,10,-3,0,-2,7,-41,-3,28,2,43,89,-109,-233,20,23,30,79,-298,-147,5,38,8,122,-391,7,-6,33,-11,90,-426,396,-26,23,-28,143,-347,291,-51,7,-64,59,-92,591,-41,-25,-63,-3,306,570,-20,-63,-46,-111,694,587,2,-70,-19,-241,897,258,33,-71,8,-429,907,-123,46,-53,35,-445,717,-338,50,-29,58,-518,364,-635,48,11,73,-456,-16,-675,40,37,72,-264,-365,-717,29,63,64,-26,-665,-618,12,73,42,196,-897,-314,-14,57,-1,419,-892,-247,-33,33,-38,344,-727,12,-46,10,-57,447,-434,156,-49,-9,-65,312,-56,258,-38,-27,-57,166,266,175,-20,-24,-32,37,462,285,-5,-20,-2,74,448,86,10,-11,14,-33,339,146,14,-4,20,-41,173,93,15,0,18,-46,62,36,10,4,14,-15,-10,31,7,1,4,36,-18,-34,notClockwise
-4,-2,0,-78,-40,44,-2,0,-3,-9,-15,5,27,-5,41,214,-58,-181,24,15,39,442,-182,-311,17,16,30,-65,-329,-100,10,52,11,227,-512,112,-6,25,-10,33,-519,370,-42,21,-54,-48,-357,329,-48,-14,-66,-241,6,795,-42,-34,-67,76,429,465,-26,-83,-44,-250,841,620,-1,-70,-7,-216,982,120,30,-62,17,-398,898,-177,40,-32,50,-402,619,-375,35,-16,65,-328,318,-554,36,11,74,-305,-42,-581,27,34,58,-157,-327,-537,16,39,54,11,-562,-560,0,37,13,-21,-663,-336,-8,46,-10,29,-738,-214,-20,32,-42,223,-633,-82,-28,25,-47,268,-416,25,-31,8,-56,205,-161,127,-21,8,-42,264,82,243,-8,-8,-29,285,295,113,0,-7,-6,105,369,235,8,-12,4,91,307,158,14,-3,12,86,229,98,11,-9,11,40,93,93,7,-4,11,4,16,90,notClockwise
-10,-2,-4,-37,68,-84,-3,-4,-1,-25,17,-34,29,-5,42,-9,-172,-176,32,22,34,15,-312,-114,12,42,19,42,-526,27,-1,39,-10,171,-627,353,-29,29,-39,187,-506,324,-53,12,-82,151,-72,522,-54,-30,-82,50,387,620,-27,-71,-61,-96,925,513,1,-82,-15,-353,1207,208,35,-74,29,-445,1168,-142,54,-53,69,-385,736,-462,46,-26,82,-428,234,-584,35,6,79,-358,-224,-683,18,35,65,-224,-546,-676,-2,52,48,17,-757,-606,-15,63,14,42,-773,-273,-15,56,-4,321,-649,-143,-27,35,-33,341,-461,-3,-26,16,-42,395,-289,68,-18,-3,-49,188,-66,262,-20,-17,-38,183,150,200,-13,-19,-28,21,277,204,0,-13,-6,43,311,118,6,-8,4,-10,258,163,13,0,14,34,163,32,15,0,14,8,62,14,9,2,9,26,2,40,3,-2,2,32,-18,14,notClockwise
1,-3,5,-13,-3,-12,0,0,0,-36,6,6,34,-5,43,36,-69,-115,27,7,33,27,-210,-181,19,20,22,-37,-350,-106,10,40,4,69,-460,124,-5,35,-17,77,-468,281,-48,32,-67,104,-288,420,-45,-2,-67,104,67,668,-44,-38,-63,166,494,579,-27,-69,-38,-86,776,498,-5,-77,-5,-249,918,175,30,-71,31,-396,848,-23,27,-46,38,-562,615,-469,38,-12,61,-592,263,-591,34,12,66,-421,-79,-613,34,38,60,-165,-337,-723,18,50,46,-83,-520,-536,15,65,36,280,-668,-478,-6,50,-5,289,-679,-175,-17,38,-26,381,-562,-34,-29,14,-42,337,-413,187,-32,-4,-48,370,-213,80,-31,-16,-48,142,24,337,-16,-17,-23,139,201,258,-6,-18,-10,37,299,154,2,-10,3,10,307,43,11,0,13,-21,249,71,14,-5,17,19,154,83,11,-2,10,12,64,7,notClockwise