AccX1,AccY1,AccZ1,GyrX1,GyrY1,GyrZ1,AccX2,AccY2,AccZ2,GyrX2,GyrY2,GyrZ2,AccX3,AccY3,AccZ3,GyrX3,GyrY3,GyrZ3,AccX4,AccY4,AccZ4,GyrX4,GyrY4,GyrZ4,AccX5,AccY5,AccZ5,GyrX5,GyrY5,GyrZ5,AccX6,AccY6,AccZ6,GyrX6,GyrY6,GyrZ6,AccX7,AccY7,AccZ7,GyrX7,GyrY7,GyrZ7,AccX8,AccY8,AccZ8,GyrX8,GyrY8,GyrZ8,AccX9,AccY9,AccZ9,GyrX9,GyrY9,GyrZ9,AccX10,AccY10,AccZ10,GyrX10,GyrY10,GyrZ10,AccX11,AccY11,AccZ11,GyrX11,GyrY11,GyrZ11,AccX12,AccY12,AccZ12,GyrX12,GyrY12,GyrZ12,AccX13,AccY13,AccZ13,GyrX13,GyrY13,GyrZ13,AccX14,AccY14,AccZ14,GyrX14,GyrY14,GyrZ14,AccX15,AccY15,AccZ15,GyrX15,GyrY15,GyrZ15,AccX16,AccY16,AccZ16,GyrX16,GyrY16,GyrZ16,AccX17,AccY17,AccZ17,GyrX17,GyrY17,GyrZ17,AccX18,AccY18,AccZ18,GyrX18,GyrY18,GyrZ18,AccX19,AccY19,AccZ19,GyrX19,GyrY19,GyrZ19,AccX20,AccY20,AccZ20,GyrX20,GyrY20,GyrZ20,AccX21,AccY21,AccZ21,GyrX21,GyrY21,GyrZ21,AccX22,AccY22,AccZ22,GyrX22,GyrY22,GyrZ22,AccX23,AccY23,AccZ23,GyrX23,GyrY23,GyrZ23,AccX24,AccY24,AccZ24,GyrX24,GyrY24,GyrZ24,AccX25,AccY25,AccZ25,GyrX25,GyrY25,GyrZ25,AccX26,AccY26,AccZ26,GyrX26,GyrY26,GyrZ26,AccX27,AccY27,AccZ27,GyrX27,GyrY27,GyrZ27,AccX28,AccY28,AccZ28,GyrX28,GyrY28,GyrZ28,AccX29,AccY29,AccZ29,GyrX29,GyrY29,GyrZ29,AccX30,AccY30,AccZ30,GyrX30,GyrY30,GyrZ30,Label
124,57,111,-1079,2216,638,49,12,70,-31,311,88,24,-6,36,258,-315,-163,11,-4,8,233,-428,-232,6,0,1,152,-404,9,-18,-8,-25,333,-865,-283,-12,-1,-30,96,-545,-247,-5,8,-27,-17,-221,-143,1,4,-11,-104,-61,-25,0,0,-7,-104,9,24,0,-1,-1,-109,44,90,-4,-1,-5,-60,91,16,-6,-2,0,-131,123,50,-10,3,-5,-54,162,23,-10,2,-4,-56,222,90,-11,2,-6,12,276,74,-8,1,-1,-30,266,112,-7,1,0,2,271,77,-3,-1,5,-22,254,169,4,0,9,36,191,63,7,-3,9,-4,113,124,8,-3,7,35,86,24,8,-3,5,28,34,17,5,-1,3,5,5,-9,1,-2,0,-10,-14,-6,0,0,1,-6,-25,-13,0,0,0,-6,-29,-2,0,0,0,-24,-13,14,1,0,0,17,-10,-12,1,0,-1,-5,-7,29,left
-28,79,-142,708,2686,1090,9,28,-58,271,1867,807,27,3,-17,-43,1379,695,31,-5,-13,-194,1056,517,33,-11,0,-282,758,433,40,-10,45,-345,-4,-43,20,-9,41,-267,-520,-137,1,6,32,37,-861,-327,-18,6,17,357,-1015,-439,-28,11,5,392,-967,-496,-28,-5,-9,375,-770,-301,-17,-4,-12,345,-493,-284,-10,-10,-15,119,-253,-284,2,-4,0,-104,-127,-71,5,-1,1,-49,-122,-121,4,-3,-1,-175,-105,-51,2,1,-1,-212,-76,12,0,0,-2,-190,-47,60,-3,0,-3,-169,-13,53,-6,0,-4,-94,47,62,-5,3,-4,-15,95,28,-4,0,-1,-20,105,29,0,3,1,87,76,16,0,-2,-2,8,50,-10,-1,2,-1,-22,41,-25,-1,4,-6,-91,70,76,-3,9,-9,-27,126,35,-6,5,-11,-37,192,155,-7,8,-5,47,247,101,-1,1,-3,76,267,143,left
132,5,101,-1480,2442,1061,65,12,70,-397,570,202,33,8,54,-17,-105,-73,8,4,18,262,-258,-197,1,-3,8,108,-230,188,-25,-3,-8,447,-724,-389,-24,-12,-15,326,-468,-294,-19,-11,-22,133,-186,-288,-1,-15,0,-134,-60,-47,4,-1,3,-66,-54,-44,6,-8,3,-112,-71,-67,4,-1,-1,-206,-85,-12,7,-4,5,-168,-91,-26,0,2,-3,-164,-75,29,1,-3,-1,-144,-53,-38,-3,3,-8,-186,-25,40,-3,5,-4,-124,10,-9,-7,9,-10,-113,53,54,-4,11,-8,-44,82,20,-5,13,-13,6,148,93,-3,15,-10,40,207,147,-3,9,-9,116,248,156,-1,4,-5,119,255,174,0,-1,0,132,251,133,0,-6,5,82,181,163,1,-9,5,103,107,81,3,-8,5,45,49,57,3,-5,2,21,16,-41,3,-2,2,0,-12,18,1,-1,1,-7,-17,-47,left
99,30,144,-149,1228,306,32,-12,57,174,-138,-132,-3,0,9,278,-316,-229,-4,-3,3,126,-262,-185,-3,0,3,129,-198,9,-24,-6,-24,142,-425,-252,-10,2,-11,55,-158,-202,3,-6,3,-85,-89,-59,9,-4,7,-56,-121,-88,8,-7,2,-136,-167,-18,12,0,1,-157,-203,-54,2,0,-6,-214,-144,-40,5,8,-3,-121,-54,-37,-2,8,-9,-107,28,6,-2,10,-4,-41,84,-22,-4,3,-8,-56,126,79,-4,8,-6,-54,116,52,-6,2,-10,-86,115,158,-4,7,-4,-30,114,149,-5,4,-6,43,145,170,-7,2,-2,110,166,162,-5,-1,-2,155,187,136,-4,-3,0,135,186,107,0,-5,3,113,173,34,0,-5,3,14,134,49,3,-3,5,-15,85,46,3,-1,4,-12,47,9,4,0,5,0,38,7,2,0,1,5,20,-22,1,-1,0,5,12,23,left
-47,73,-134,390,1721,1076,-2,31,-60,341,1556,684,12,7,-31,149,1323,669,24,-1,-2,-28,1056,549,23,-10,0,-98,802,555,43,-26,43,-266,288,-15,23,-11,34,-281,-196,-32,16,-5,32,-156,-595,-273,-8,5,13,14,-828,-354,-15,8,9,150,-895,-462,-32,11,-14,237,-769,-363,-18,-4,-5,193,-573,-279,-17,0,-6,175,-387,-174,-2,-9,0,137,-253,-184,1,-4,0,26,-207,-153,9,-5,7,-15,-210,-83,6,-2,2,-9,-232,-113,2,-7,-1,-182,-195,-100,0,3,-2,-202,-136,-51,-4,2,-2,-186,-73,17,-6,-2,-1,-155,-13,-34,-5,3,0,-132,50,8,0,7,0,-54,87,-36,-5,3,-8,-46,86,6,-3,7,-12,-115,99,75,-4,14,-17,-39,130,97,-4,7,-16,-33,166,176,-9,6,-14,39,198,129,-4,3,-4,81,238,260,-3,1,1,226,258,123,left
-23,85,-130,816,2300,1465,-7,21,-59,217,1864,988,19,-18,6,179,1484,644,20,-15,4,108,1087,477,31,-26,17,-97,737,532,30,-27,38,-334,127,35,30,-13,39,-258,-343,-297,9,10,12,-144,-711,-335,5,9,21,-21,-935,-355,-19,19,-4,164,-967,-453,-15,2,0,239,-882,-362,-21,-2,-4,289,-717,-273,-15,-7,-6,87,-486,-186,-18,-1,-13,-50,-214,-105,-9,1,-3,-88,-19,47,-7,1,1,-84,77,-5,-5,0,1,-137,119,58,-5,-2,3,-93,121,30,-4,-4,1,-18,112,32,-2,-5,3,-45,79,-22,-2,-1,0,-17,43,-52,0,0,-1,-23,18,-23,2,7,-3,-17,-1,-60,1,0,0,11,-41,27,0,0,-4,-15,-40,11,-2,1,-3,-77,-9,12,-4,4,-5,-60,20,99,-4,1,-4,-60,63,10,-2,8,-7,-73,130,95,0,8,-4,35,168,51,left
146,-53,26,-299,3961,2212,60,-34,17,-234,1634,847,47,-20,30,-231,785,353,29,-6,26,46,258,60,22,-11,25,115,-89,473,-10,0,11,226,-1059,-603,-10,3,2,207,-1008,-541,-18,6,-14,197,-840,-486,-13,-1,-15,-12,-558,-271,-16,8,-23,-173,-207,-126,-12,11,-11,-234,-3,24,-10,9,-7,-119,131,144,-7,2,0,-118,172,132,-8,5,-2,-1,178,194,-4,-1,3,84,134,126,-5,-3,0,78,121,32,-3,-5,1,8,84,86,-4,-1,-1,41,65,-5,-2,-3,1,-15,48,1,-2,0,-2,-51,43,6,-3,1,-4,-40,63,-6,-3,6,-3,-41,85,38,-1,6,-3,17,114,-1,-2,4,-6,-12,137,76,0,5,-1,57,154,35,2,1,1,57,130,75,4,0,2,67,94,40,2,-3,1,31,57,76,2,-1,3,35,37,17,1,-2,-1,11,11,21,left
-72,99,-120,541,1519,941,-23,55,-66,638,1603,672,0,14,-46,481,1515,707,32,-17,-9,-1,1219,664,40,-12,2,47,854,552,55,-42,37,-257,288,68,42,-22,43,-365,-323,-66,23,-14,43,-317,-832,-194,-7,9,20,35,-1054,-545,-27,4,6,-30,-1045,-481,-28,16,-2,179,-855,-536,-20,-6,-6,160,-618,-380,-16,1,-8,72,-416,-251,-7,-1,-4,-58,-284,-114,-5,5,-2,-30,-171,-21,-7,0,-3,-82,-78,15,-9,3,0,-98,-14,29,-5,-1,3,-74,35,136,-9,-2,0,-23,76,34,-4,-7,2,-15,81,-47,-4,-3,-1,-49,81,-55,-3,0,-5,-77,45,-71,-1,7,-9,-116,47,-34,-2,13,-11,-92,61,-36,-4,14,-15,-59,103,82,-2,15,-11,43,143,81,-3,6,-9,114,197,148,-5,0,-5,108,229,159,-2,-4,1,129,214,104,-1,-3,4,65,176,122,left
148,-56,38,735,3709,2344,67,-40,2,-155,1768,1160,64,-31,43,-106,860,486,31,-14,26,-159,356,203,26,-8,30,41,38,481,-15,0,6,-58,-849,-397,-13,5,14,129,-899,-647,-28,9,-12,155,-749,-464,-16,0,-10,169,-524,-419,-15,4,-15,2,-274,-280,-5,4,-2,-70,-115,-91,-2,4,0,-106,-36,-70,1,3,2,-56,-11,17,2,2,4,-95,-28,49,-1,-3,-2,-98,-41,54,0,-1,2,-54,-78,115,-4,-3,-4,-41,-79,-10,-7,-1,-9,-116,-37,62,-6,0,-7,-102,-3,23,-7,6,-10,-48,41,-15,-7,7,-11,-2,100,30,-6,10,-10,27,141,-23,-4,8,-5,67,148,66,-5,10,-8,112,173,49,-3,3,-1,78,180,53,-2,1,0,39,163,118,0,-1,2,46,147,55,1,0,2,20,122,74,3,-1,3,50,93,76,4,-1,1,46,48,43,left
-25,130,-87,1010,1052,925,-28,33,-67,438,1159,833,-1,2,-30,62,1163,706,10,-6,-18,29,1060,560,20,-12,-3,-145,871,499,37,-34,30,-320,596,241,41,-24,35,-440,141,-44,35,-2,40,-106,-391,-388,13,6,28,-66,-877,-381,-8,9,7,271,-1071,-522,-24,4,-10,167,-1076,-424,-20,7,0,380,-910,-494,-26,-4,-16,201,-635,-209,-13,-10,-5,112,-320,-226,-4,-2,1,-79,-153,-55,-1,-2,5,-50,-89,-58,-7,-2,-3,-154,-38,-55,-6,-2,0,-210,9,20,-10,4,-6,-101,63,20,-9,-3,-2,-194,108,87,-8,5,-4,-44,143,18,-5,1,-2,-10,149,47,-6,3,-4,-8,124,-28,0,3,-1,-43,126,82,0,8,-6,60,115,-9,1,6,-8,-77,135,79,2,12,-4,36,158,127,2,7,-4,65,187,114,1,2,0,93,173,120,2,-2,3,89,143,145,left
124,-94,-4,-894,3721,2037,96,3,45,-466,1438,594,41,-9,30,-118,471,132,26,12,19,-43,83,-7,17,2,13,98,-104,489,-12,19,10,215,-960,-530,-26,-3,-7,288,-887,-473,-15,4,-10,190,-664,-265,-14,-12,-9,154,-473,-256,-15,-8,-10,-108,-276,-54,-11,-1,-4,-42,-134,-83,-14,-3,-6,-119,-3,9,-14,2,-5,-120,114,-5,-9,0,-1,-85,154,95,-8,0,0,1,137,46,-6,-7,0,-25,109,21,-4,0,0,-29,76,12,-2,-8,2,-124,29,19,-5,7,-1,-145,47,14,-5,7,-7,-72,82,19,-4,16,-9,-69,158,35,-3,10,-9,53,213,110,-2,9,-6,105,238,83,1,-2,-1,116,206,79,3,0,5,65,163,138,3,-7,4,96,89,21,4,-5,6,-12,29,76,3,-2,4,7,0,-7,1,0,-1,-5,-2,34,1,0,0,9,-1,-16,left
150,-49,11,-704,3783,1910,98,-28,35,-425,1473,646,61,-9,46,-16,279,115,25,5,24,52,-124,-21,16,-2,15,100,-209,411,-18,7,9,208,-991,-429,-26,9,0,281,-867,-492,-28,2,-20,56,-478,-208,-9,-8,-13,20,-226,-191,-7,-2,-10,-118,-120,-37,-3,2,-5,-36,-88,-45,-6,-1,-8,-108,-38,23,-5,0,-5,-176,18,13,-7,3,-1,-167,42,99,-9,3,-7,22,80,-16,-7,-4,-6,-68,97,-24,-10,1,-11,-72,118,85,-4,2,-7,-87,103,64,-5,7,-8,115,108,-72,-1,2,-6,9,113,17,-3,8,-6,-48,131,38,1,8,-1,85,143,167,0,5,0,203,166,-38,2,-1,0,10,167,51,3,1,5,-17,130,154,3,-1,3,88,98,0,4,-3,5,-22,50,92,4,-1,3,19,14,15,2,-3,0,-12,7,36,2,-1,1,15,16,-9,left
132,-1,86,-1774,2385,1409,68,1,59,-282,588,190,29,12,29,-87,-11,-49,17,4,21,247,-240,-207,6,-6,8,103,-272,300,-20,-1,-8,491,-784,-585,-22,-5,-17,202,-551,-232,-13,-11,-10,99,-290,-255,-10,-6,-9,-173,-84,7,-3,2,1,-104,10,18,-1,-3,1,-115,57,61,0,-2,1,-123,76,58,-1,-1,3,-70,54,43,0,-2,2,-28,22,48,-1,-1,0,-85,16,12,-3,0,-3,-64,1,48,-4,1,0,-68,24,49,-5,4,-6,-72,54,-5,-3,6,-2,-14,94,93,-4,3,-5,73,110,-11,0,2,0,32,118,49,0,2,-2,44,109,31,1,0,0,54,101,24,-1,0,-3,-30,97,66,0,3,0,-20,91,47,-1,2,-1,-11,108,71,0,2,1,41,86,75,1,-1,1,20,70,62,2,-1,2,33,50,50,3,-3,2,17,27,27,left
148,-22,41,-671,3300,1662,58,-22,11,-564,1199,552,38,1,29,-115,427,108,24,-3,15,33,14,-59,15,-3,7,77,-188,285,-14,0,-1,228,-966,-525,-12,9,-3,345,-841,-542,-11,-3,-14,143,-649,-343,-11,4,-12,29,-399,-241,-7,1,-5,-79,-186,-92,-8,6,-5,-96,-32,0,-7,-5,-1,-172,47,90,-8,0,-1,-153,110,102,-6,-2,-1,-88,137,116,-7,-2,-2,-133,126,67,-6,1,-3,-27,113,48,-4,3,-5,3,121,40,-4,3,-6,-66,117,20,-4,7,-4,-57,120,161,-3,8,-8,20,162,47,-3,3,-6,-20,170,113,-3,6,-1,47,171,199,-1,1,0,150,146,59,1,-4,1,83,124,110,2,-2,4,114,87,10,3,-5,3,48,55,33,3,-2,2,2,26,-9,2,-2,0,0,23,-20,1,0,0,-4,5,-24,0,0,0,-3,-5,11,left
141,-12,82,-800,1974,808,53,5,25,-293,327,92,26,23,25,34,-77,-87,4,-3,3,140,-159,-134,6,-2,8,52,-198,173,-20,0,-6,266,-662,-348,-14,-6,-3,240,-435,-266,-8,-16,-7,32,-295,-194,4,1,4,-2,-246,-73,-3,-2,-4,-78,-164,-41,-3,3,-2,-98,-79,-45,-7,2,-2,-148,6,69,-11,1,-8,-247,97,65,-9,5,0,-152,150,187,-7,1,-3,101,139,34,-6,-5,-5,-6,138,-7,-1,-1,-1,52,99,92,2,-4,1,147,45,-40,0,-3,-7,-26,46,-79,0,1,-6,-207,82,65,0,9,-8,-157,114,9,0,10,-5,-76,143,95,-2,11,-5,49,171,79,-1,3,-3,75,171,110,1,4,3,150,143,93,0,-3,3,175,102,54,1,-6,0,58,60,43,4,-4,4,14,33,29,3,-3,1,0,4,11,2,-1,0,-17,-8,14,left
149,-26,61,-1321,3496,2113,69,-9,38,-192,1190,570,43,0,35,-274,396,184,31,8,36,40,-30,-42,8,-1,10,154,-165,495,-24,0,-1,331,-902,-642,-20,0,-3,222,-716,-399,-20,-7,-12,289,-501,-392,-18,-13,-18,70,-253,-286,-4,-6,-1,-118,-120,-78,-1,0,0,-57,-112,-98,-6,-2,-4,-157,-77,9,-5,0,0,-222,-33,50,-3,2,0,-97,3,88,-3,0,2,-84,38,92,-2,-1,1,-47,80,2,1,2,3,-100,73,114,0,6,-2,64,66,-92,-2,2,-9,-164,45,75,-3,11,-12,-27,68,9,-5,8,-13,0,122,121,-6,8,-12,70,192,36,-5,3,-6,49,206,228,-4,1,1,154,230,90,-1,-5,3,80,190,92,1,-3,7,49,117,101,4,-5,8,34,59,42,4,-1,4,-3,27,26,4,0,2,13,4,-2,4,0,1,11,6,-10,left
143,-18,59,-1005,2898,1485,59,-2,27,-273,919,443,40,1,21,-113,216,122,24,0,14,56,-83,-54,12,-3,4,47,-192,300,-19,0,-5,281,-850,-477,-16,-3,-7,176,-689,-352,-19,-4,-11,114,-464,-298,-14,-3,-8,-49,-291,-128,-10,1,-3,-62,-163,-30,-4,1,-2,-116,-96,41,-5,5,0,-62,-22,72,-4,0,2,-91,18,104,-5,4,5,2,70,48,-3,-2,2,11,91,23,-6,-1,-1,-2,117,-37,-5,-1,-3,-11,126,-10,-4,1,-3,6,129,-53,-4,0,-10,-11,134,-32,-2,5,-7,-70,134,41,-3,6,-7,3,149,53,-1,0,-2,-30,153,105,-1,4,-2,8,147,58,0,0,1,-3,133,159,1,0,2,45,118,69,2,-4,3,18,100,87,2,0,3,26,69,28,3,-2,3,16,27,37,2,0,2,5,3,33,1,-2,1,18,-2,-6,left
132,-36,-75,-1075,3994,1690,87,3,-17,-388,1688,470,66,8,11,-279,673,159,44,6,17,-40,3,-19,20,6,2,170,-278,358,-10,7,12,296,-1201,-552,-18,0,6,326,-1149,-378,-25,-6,-13,269,-908,-310,-19,-3,-15,126,-522,-291,-7,-3,-10,-131,-198,-58,-8,0,-2,-123,-16,-78,-7,-1,0,-215,112,-8,-7,-1,3,-212,171,-29,-7,0,-7,-297,214,27,-6,9,-4,-164,211,124,-4,6,-12,-128,217,128,-7,13,-11,9,240,133,-6,7,-8,44,266,239,-8,4,1,205,265,154,-6,-9,2,94,254,219,-1,-2,10,178,215,35,1,-9,5,21,136,79,3,0,6,66,67,-10,2,-4,1,-24,50,20,3,2,3,38,15,-41,2,-1,0,-16,-14,22,0,0,0,5,-12,-16,0,-1,-2,4,0,0,0,1,0,23,-2,-27,-2,-2,-1,-19,12,5,left
164,-23,32,-887,4320,1704,87,-15,27,-297,1757,546,60,-1,43,-121,700,130,28,-1,23,-31,114,-10,15,10,12,155,-96,401,-22,1,1,251,-1039,-376,-24,0,-2,205,-973,-361,-24,-5,-18,195,-782,-247,-11,-5,-7,120,-505,-237,-5,-16,-3,-89,-310,-110,-2,0,-1,-106,-215,-126,-4,4,-1,-140,-79,-75,-7,4,-1,-192,53,-18,-7,4,-7,-201,121,6,-7,7,-3,-153,127,112,-5,2,-2,-28,136,84,-3,0,-3,-2,105,69,0,0,-2,33,77,35,-1,1,-1,77,78,31,0,0,-6,6,90,12,-1,4,-5,-3,93,61,0,2,-5,31,104,48,-2,2,-6,-10,124,43,0,2,-2,15,123,113,-1,2,0,46,120,76,0,0,1,87,110,48,-1,0,0,8,116,75,0,0,2,71,97,21,-1,-3,0,20,78,56,0,-2,2,46,54,-15,left
151,-27,23,-858,3277,1518,90,-9,48,-195,1137,407,46,-3,41,-5,169,79,28,-9,33,120,-274,-101,15,-7,12,90,-403,272,-19,1,2,209,-1150,-493,-29,5,-18,88,-953,-283,-26,0,-26,-85,-560,-158,-23,11,-26,-113,-167,-103,-18,3,-11,-143,77,76,-14,6,-3,-7,211,17,-11,-7,1,-69,245,120,-5,4,6,80,215,-74,-3,-7,1,-64,151,37,-1,6,0,76,98,-128,0,-5,-6,-122,58,71,-1,8,-4,21,43,-71,-1,-2,-12,-75,53,104,-1,10,-6,34,91,-56,-1,0,-9,-54,142,152,-1,7,-3,72,186,8,0,0,-1,31,196,101,0,4,4,95,190,52,1,-4,1,77,151,74,3,-1,6,27,107,32,3,-4,6,46,50,30,3,-2,3,2,25,35,2,-2,2,1,12,12,2,-2,2,-35,9,11,1,-1,1,4,-13,-25,left
164,5,15,-105,3323,1339,93,-9,29,189,1283,442,49,-8,20,64,447,162,35,-10,28,96,-8,-11,18,-15,10,86,-231,243,-13,-8,9,62,-1042,-436,-19,-6,-3,-12,-973,-345,-13,-1,-6,-120,-758,-275,-11,6,-19,-196,-479,-203,-5,13,-5,-273,-210,-9,-9,6,-19,-190,15,-18,-6,13,-5,-283,138,90,-9,7,-11,-27,200,74,-9,3,-9,-74,204,137,-6,3,-12,87,181,47,-7,2,-4,-20,150,160,-9,-1,-14,123,150,19,-6,3,-4,35,171,169,-6,1,-4,153,204,18,-6,2,-1,91,217,86,-2,0,3,178,201,12,-1,0,4,113,167,-7,0,-2,4,85,116,11,2,-1,5,62,79,-17,3,-2,4,7,47,1,3,0,4,9,11,-8,3,-1,3,-15,7,0,3,0,2,2,15,-25,2,0,1,-16,0,20,0,0,0,-6,-12,12,left
137,-57,65,-360,3271,1459,78,-18,39,-180,1316,415,54,-7,41,-18,482,43,26,-6,25,53,18,-80,14,-9,15,19,-198,305,-15,5,-4,64,-979,-402,-22,0,-11,0,-897,-325,-25,6,-18,15,-661,-170,-14,1,-14,-34,-366,-62,-10,10,-6,-4,-135,0,-8,1,0,-31,7,70,-7,6,6,31,85,46,-8,-8,3,-92,109,60,-7,3,1,-104,110,31,-5,-4,-1,-9,105,20,-4,0,-4,-34,111,-5,-4,-2,-2,34,86,-26,0,3,-4,52,79,3,-2,1,-3,68,80,-93,-3,3,-4,1,89,56,-3,4,-2,52,114,-34,-2,2,-5,-7,140,66,-2,4,0,34,158,62,0,-1,1,30,153,61,0,-1,3,-13,143,63,1,-1,5,25,101,59,3,0,5,11,75,26,1,-2,3,9,31,41,2,-1,2,-5,14,0,2,-1,0,7,4,-16,left
137,-34,86,-837,2182,1226,72,-15,61,72,479,188,37,-12,33,-52,-37,-25,22,-11,23,20,-242,-156,12,-7,12,-16,-284,251,-17,1,-5,123,-770,-494,-20,3,-19,-50,-543,-237,-11,3,-11,-27,-319,-245,-12,3,-19,-138,-112,-73,-3,7,-5,-146,-6,31,-9,1,-16,-152,67,69,-3,2,-2,-159,62,79,-8,4,-11,0,44,87,-2,4,-2,-70,31,111,-4,5,-9,195,32,40,0,4,-5,13,58,120,-5,7,-7,145,127,-51,-3,3,-7,2,186,194,-4,6,-3,168,200,-103,-5,0,-4,-47,238,227,0,4,5,184,210,-27,0,-3,0,55,164,95,2,-2,6,68,118,43,3,-3,4,49,86,0,3,-3,4,42,29,-1,2,-4,1,-3,-2,2,1,-1,1,-14,-2,15,0,-1,1,-6,-10,-45,0,0,0,-25,-18,7,0,0,0,-26,-10,4,left
146,-42,53,-327,2576,1564,63,-32,35,-299,914,529,39,-8,30,-101,313,137,23,-7,23,-57,-2,10,14,-2,16,48,-145,337,-19,3,1,82,-766,-373,-17,9,-4,144,-669,-368,-16,0,-12,76,-514,-189,-12,2,-15,5,-312,-180,-7,0,-10,-109,-143,-15,-6,2,-8,-95,-12,6,-4,2,-3,-83,51,-22,-5,4,-4,-104,97,54,-3,3,2,-3,93,20,-5,0,-3,67,73,10,-1,-3,4,67,46,-54,0,-2,0,121,29,-36,2,-2,4,-55,-15,-2,0,-1,0,31,-29,-37,2,0,-1,-108,-25,25,0,7,-5,-87,10,-63,-4,4,-9,-247,63,242,-4,7,-8,33,137,-34,-4,4,-8,-14,192,119,-4,5,-3,84,210,30,-3,1,-3,72,189,130,1,1,4,186,161,3,0,-3,0,121,114,16,2,-2,3,26,61,45,2,-3,2,24,34,32,left
-44,84,-124,786,1478,685,-19,42,-84,472,1429,644,1,14,-43,306,1362,587,27,-15,-11,-12,1157,536,40,-10,9,2,816,346,48,-32,52,-227,229,83,34,-20,58,-242,-399,-211,11,6,50,-62,-881,-236,-21,2,10,56,-1040,-429,-34,1,0,-7,-993,-354,-33,8,-19,90,-787,-364,-20,0,-15,64,-504,-251,-7,-16,-17,-100,-313,-48,3,3,1,-113,-254,-71,-1,10,-3,1,-184,-98,-4,1,-7,-107,-71,-17,-6,5,-4,-67,7,-77,-5,-1,-4,-74,54,78,-8,7,1,-62,48,-19,-8,-3,-4,-71,47,84,-9,5,-3,-64,64,41,-8,0,-8,-51,114,-5,-8,4,-7,-33,147,88,-2,1,-11,100,187,-36,-1,5,-8,1,224,66,1,4,-3,104,210,17,1,4,-1,88,162,101,2,1,1,69,144,32,0,0,3,31,134,112,1,0,4,77,96,48,left
154,-37,41,367,3953,1017,91,-25,46,347,1456,393,49,-21,32,-54,512,167,36,-2,28,92,38,-8,19,-11,12,18,-164,191,-15,0,3,-100,-1068,-285,-23,3,-8,-127,-934,-234,-18,8,-9,15,-676,-276,-20,-2,-14,-83,-394,-137,-12,8,-5,-134,-161,-28,-8,5,-5,-57,-30,-27,-8,5,-6,-115,71,83,-7,1,-2,2,106,-6,-6,0,-4,-55,113,108,-3,0,0,104,77,-13,-4,-1,-2,88,56,55,-4,-3,1,82,42,-56,-4,0,-2,-20,34,46,-2,0,4,37,27,-41,-4,-1,-4,-35,57,5,-2,1,-3,-99,81,18,-1,5,-4,-62,127,29,-1,2,-5,27,145,12,-2,3,-6,-26,175,24,0,4,0,34,159,79,-1,1,1,86,157,31,0,-2,4,79,98,8,2,0,3,1,66,56,3,-1,3,29,33,34,3,-2,1,6,21,0,left
139,-19,72,-996,2572,1021,67,-5,60,-112,672,130,27,0,31,-23,41,-49,14,-3,17,116,-185,-120,5,-4,5,27,-221,264,-21,0,-7,217,-776,-363,-22,2,-19,142,-539,-193,-13,-8,-15,20,-282,-150,-7,2,-7,-81,-95,-14,-3,0,-1,-81,-7,49,-1,4,1,-31,22,-61,-1,-3,0,-113,24,65,0,8,5,-47,2,13,-3,-2,-3,-11,-5,56,-2,2,0,-43,-6,13,-6,-2,-6,-20,35,15,-5,-1,-3,-107,60,56,-6,0,-9,-54,94,-28,-3,1,-2,-122,102,101,-3,4,-4,75,106,-56,-2,1,-2,0,93,59,-2,4,-1,67,76,-24,0,-1,0,43,57,41,0,1,-3,66,49,-40,2,0,-4,-40,45,-7,2,3,-5,-8,55,47,3,4,-4,21,72,18,2,3,-4,35,80,47,1,2,-1,47,82,36,1,-1,1,66,75,72,left
-44,66,-137,869,2056,813,-11,25,-57,802,1727,531,4,-4,-20,356,1405,582,28,-19,-8,18,1129,479,33,-16,-6,-186,872,434,52,-20,39,-436,270,-44,46,-7,52,-352,-405,-61,28,4,41,-267,-997,-268,-7,12,10,103,-1228,-434,-24,14,6,200,-1216,-354,-36,6,-7,283,-1000,-345,-37,-5,-27,85,-572,-93,-26,-5,-24,106,-104,-191,-12,0,0,-91,91,34,-4,-2,8,-54,120,56,-4,-4,4,-29,101,-26,-3,-2,3,-126,68,-5,-2,1,4,-120,40,5,-1,2,2,-95,24,86,-4,2,0,-13,16,-17,-5,2,-3,0,28,-1,-3,-1,-1,-11,41,-7,-4,0,-6,-6,53,5,-3,0,-4,9,48,-3,-3,3,-7,26,58,-55,-1,2,-5,-34,64,49,-1,6,-3,85,75,-13,0,1,-2,25,93,38,0,3,0,40,104,8,0,0,0,-15,114,57,left
148,-30,-45,0,4358,1762,99,-29,21,-91,1898,844,75,-12,38,-63,877,390,45,-7,29,-30,269,136,26,-2,21,95,-24,363,-12,-5,21,91,-1034,-329,-27,7,-3,125,-966,-409,-32,-1,-16,68,-761,-320,-24,1,-16,105,-454,-263,-14,-8,-16,-103,-218,-131,-6,9,-6,-121,-63,-63,0,-1,0,-175,-31,89,-1,10,0,-53,20,-11,-2,-2,-1,-160,34,59,-3,13,2,29,44,31,-5,-4,-2,-22,34,88,-4,7,1,97,64,-10,-6,-6,-6,62,61,63,-5,2,-3,39,74,-45,-4,-4,-5,-78,81,83,-1,5,0,13,90,10,-4,-3,-4,23,73,-24,-2,1,-1,-18,70,35,0,2,0,56,65,-35,-3,0,-2,68,78,29,-2,0,-2,42,79,-42,0,1,-2,-16,100,27,2,4,1,-11,94,40,1,1,0,3,92,49,2,1,3,19,69,52,left
-29,99,-134,908,1318,466,-12,49,-69,1323,1427,421,1,-9,-25,447,1268,649,25,-14,8,423,915,530,25,-29,-3,-160,659,514,41,-25,38,-437,337,93,41,-28,46,-672,-200,157,27,1,32,-415,-650,-415,0,20,16,-311,-839,-271,-17,25,6,245,-833,-572,-28,0,-6,255,-801,-476,-26,6,-10,236,-611,-283,-18,-3,-11,229,-383,-207,-9,-14,-15,63,-198,-110,0,-6,3,1,-141,0,-1,-5,3,69,-110,-143,-4,-15,0,-110,-32,-97,-3,3,2,-187,29,-33,-4,-6,0,-212,72,-4,-4,7,-1,-240,103,8,0,7,-2,-210,112,71,1,20,-1,-52,98,149,-4,0,-7,97,91,73,-1,10,0,28,115,118,-3,0,0,180,109,69,-5,0,0,54,114,85,-6,-3,-1,51,97,11,-5,0,-1,-79,101,141,-5,1,-4,42,95,-47,-1,2,-2,-26,101,117,left
146,-78,-11,330,3852,2276,83,-38,5,69,1830,973,68,-37,13,-146,965,447,50,-12,25,-83,417,124,32,-8,18,-54,43,516,-7,6,14,-39,-939,-481,-18,9,0,-83,-992,-421,-26,15,-5,28,-889,-389,-29,8,-21,-34,-665,-145,-21,3,-18,21,-368,-103,-14,6,-12,-111,-126,40,-6,2,0,47,-23,21,-9,5,-1,-5,47,72,-8,0,2,92,99,-66,-8,4,1,39,105,22,-7,-2,1,104,87,-80,-8,-2,-1,-24,83,30,-4,-3,4,59,63,-74,-2,-5,-1,-51,14,9,-3,-3,0,-151,1,-31,0,5,-4,-117,16,39,-2,6,-6,-107,35,-29,-1,12,-10,-67,79,49,-2,9,-6,62,139,66,-3,6,-8,144,180,5,-3,0,-3,103,173,99,-1,0,0,135,161,47,-1,-6,2,82,128,2,0,-2,2,-5,86,55,1,-1,4,-1,46,9,left
117,-103,-24,426,4256,1984,92,-53,22,-135,1903,879,70,-22,29,-133,897,374,51,-8,35,-180,286,130,35,-5,29,104,-110,363,-3,10,20,-104,-1153,-437,-18,16,5,101,-1168,-501,-29,4,-11,55,-968,-280,-29,1,-19,158,-639,-374,-24,0,-23,-149,-273,-47,-12,4,-9,-34,-50,-26,-12,-2,-11,-173,87,98,-6,4,-3,-84,148,3,-8,3,-8,-118,165,74,-7,2,-3,36,158,-20,-7,3,-6,7,162,19,-7,4,-5,13,165,15,-5,5,-3,78,163,32,-4,2,-4,34,169,-11,-3,5,-1,3,180,42,-1,4,1,41,167,131,1,3,4,118,145,0,0,-1,2,34,125,132,2,-1,5,79,90,17,2,-3,2,10,55,50,3,-3,1,14,32,57,2,-3,0,8,20,17,2,-2,0,-6,0,7,1,-1,1,-3,-16,10,0,-1,0,-10,0,25,left
115,-102,38,-151,3582,2186,68,-45,21,-230,1555,811,63,-10,44,-219,693,264,30,-3,25,-74,186,14,21,0,18,68,-92,460,-9,12,0,55,-961,-511,-14,16,0,131,-937,-496,-28,0,-23,121,-771,-350,-14,3,-16,36,-503,-200,-16,-4,-16,-143,-245,-27,-7,9,-4,-32,-78,-6,-9,-1,-8,-118,23,61,-5,6,1,12,88,41,-8,-1,-3,7,120,69,-5,4,3,66,119,-27,-6,-3,-2,-14,111,62,-4,0,1,8,115,-38,-5,-3,-5,-3,101,10,-4,0,1,-61,76,3,-4,-1,-4,-45,55,15,-3,4,0,-125,59,105,-2,6,-2,57,54,-29,-2,4,-4,-23,81,86,0,7,-5,87,118,14,1,2,-2,71,140,122,0,-1,-1,140,139,-30,1,-3,0,13,103,63,1,0,3,25,82,30,1,-3,2,-2,34,28,1,0,2,-18,15,27,left
151,-55,49,52,3623,1816,83,-46,33,222,1390,654,55,-28,30,-171,608,251,36,-4,26,-2,170,0,23,-6,13,28,-53,388,-14,4,-1,-25,-903,-436,-19,9,-8,-142,-802,-303,-21,11,-14,17,-657,-303,-17,-2,-16,-66,-468,-154,-14,5,-10,-124,-275,1,-9,3,-9,-59,-139,21,-11,12,-8,-153,-19,111,-6,10,1,115,48,15,-9,5,-6,131,110,25,-7,-2,-1,99,116,-44,-7,-1,0,-47,106,145,-3,-2,6,199,52,-130,-7,-7,-7,35,35,-92,-3,-1,0,-101,29,-77,-3,1,-7,-56,42,39,0,5,-2,95,57,-82,0,1,-9,-81,101,-38,0,4,-5,-121,118,60,0,6,-5,-4,134,77,2,7,0,46,128,28,-1,2,-1,27,133,125,0,1,2,106,102,40,0,0,4,84,91,48,1,-4,3,66,60,36,0,-5,1,13,37,34,left
131,-78,60,-367,3033,1768,80,-46,48,-290,1142,562,53,-7,41,-144,386,127,30,-4,27,23,-27,-41,18,-7,16,32,-191,385,-14,9,-3,70,-885,-443,-21,12,-11,63,-769,-358,-24,1,-19,99,-522,-241,-18,-1,-17,-114,-221,-101,-10,6,-6,-21,-21,-54,-4,0,-3,-70,91,54,-2,6,2,26,116,-79,0,-1,0,-82,88,110,1,7,4,62,34,-64,-2,0,-1,-17,5,88,-3,3,1,71,-9,-30,-5,-4,-3,-33,22,82,-6,3,0,43,39,17,-6,-6,-3,-35,60,41,-5,1,-2,-2,86,-17,-3,-3,-2,-49,92,62,-1,4,0,43,84,-35,0,-2,0,-37,74,57,0,5,1,11,55,-29,1,1,-3,-92,43,76,0,8,-1,-20,56,7,0,2,-4,25,56,72,-2,5,-3,70,81,14,-2,0,-4,66,98,63,-1,-1,0,103,80,25,left
149,-89,41,-54,4321,2414,107,-32,51,318,1751,900,68,-39,34,-303,775,380,38,-2,28,59,226,11,17,-4,9,-49,-3,605,-14,10,2,29,-991,-524,-31,0,-18,-163,-908,-350,-27,20,-13,107,-720,-506,-20,-1,-16,-94,-458,-57,-7,2,-4,59,-292,-139,-8,3,-5,-86,-160,-62,-5,13,4,71,-54,-10,-11,-3,-4,-27,16,15,-6,3,3,77,44,-86,-9,-4,-3,-45,82,102,-5,2,1,66,85,-132,-7,-5,-7,-105,72,160,-3,5,1,3,65,-70,-5,-2,-6,-38,73,88,-3,4,0,-50,63,-30,-2,3,-1,18,62,56,-1,2,3,40,70,26,0,0,0,158,59,-109,1,-3,0,-29,40,43,2,2,3,72,23,-102,0,-4,-4,-24,13,39,0,5,-2,-75,26,-40,-1,6,-5,-114,68,110,-2,7,-4,-4,105,91,-1,2,-4,26,127,36,left
136,-100,28,519,4072,2360,98,-60,4,-36,1861,1032,68,-31,29,-239,906,445,50,-11,29,-80,283,123,31,-9,17,-34,-59,514,-5,8,7,-135,-1052,-482,-22,14,4,-37,-1044,-509,-27,11,-12,85,-843,-435,-29,4,-18,2,-518,-230,-20,4,-13,41,-217,-156,-12,8,-8,-59,-27,-1,-7,6,-1,37,51,16,-6,0,-1,-26,62,100,-3,0,0,28,63,-38,-7,0,0,-43,72,119,-4,0,1,147,82,-95,-8,-4,-1,-12,76,91,-5,2,3,79,76,-35,-7,-4,0,20,78,16,-4,-1,2,-27,73,-60,-5,-4,0,-96,74,53,0,1,1,-33,85,-29,0,-1,0,-32,72,-20,2,2,1,-32,49,-4,4,1,0,-11,23,-29,4,5,0,-38,-6,25,2,3,-2,-43,-30,22,0,3,-4,-67,-25,35,-1,5,-8,-73,20,62,-2,6,-7,24,58,49,left
126,-110,35,947,3690,1942,91,-56,43,240,1458,774,57,-28,24,-88,690,341,35,-13,24,-5,249,77,19,-7,14,48,23,466,-9,10,1,-196,-829,-373,-22,15,-7,-50,-730,-312,-23,8,-7,51,-574,-310,-17,4,-11,55,-367,-163,-9,-2,-7,-49,-199,-15,-5,6,0,58,-86,-93,-6,-4,-3,-57,-24,19,-4,4,-1,-32,-8,-56,-5,-3,-3,-130,4,56,-5,7,-2,-61,22,-28,-6,0,-6,-109,37,33,-4,10,0,34,38,-3,-4,-3,-4,57,40,22,-4,5,-1,88,36,-23,-4,-3,-1,79,28,12,-3,2,1,57,21,-34,-4,-5,-3,-37,23,23,-2,3,1,-32,31,-16,-1,-1,-4,-61,44,27,0,4,-2,-26,45,0,0,0,-7,-19,55,29,0,6,-3,-14,74,-30,0,2,-6,43,79,57,1,4,-1,58,75,-15,1,0,-3,34,71,39,left
135,-62,53,649,4204,2002,87,-57,29,-203,1759,909,55,-11,41,1,772,296,28,-14,24,-1,250,92,20,-4,19,62,-8,434,-12,1,-1,-119,-993,-289,-23,18,-3,97,-918,-511,-24,-2,-16,-50,-701,-269,-16,9,-12,31,-456,-205,-16,-4,-13,-150,-252,-49,-11,9,-2,-26,-104,-57,-9,0,-4,-148,-18,72,-9,10,-3,39,46,-64,-7,-4,-2,-82,96,113,-6,8,0,80,127,-79,-5,-1,-2,38,139,71,-3,3,2,88,114,-85,0,-3,1,46,75,15,0,2,0,-13,41,-10,0,-2,-1,20,21,-43,0,-2,-2,-96,9,82,0,0,-5,17,26,-69,0,0,-6,-91,49,103,2,4,-5,64,81,-77,3,3,-7,-46,105,86,4,8,-2,84,119,0,2,2,-3,30,124,99,1,3,0,79,122,2,0,-1,1,26,99,102,0,-1,4,53,67,53,left
115,-57,95,-407,2468,707,55,-5,58,146,214,153,35,-25,33,46,-421,-100,22,-16,12,101,-629,-210,8,-4,0,-19,-655,38,-16,12,-23,178,-1270,-332,-25,5,-44,-225,-801,-202,-25,28,-37,-36,-323,-178,-29,21,-30,-194,226,130,-17,16,-14,29,568,-31,-14,4,-9,-116,788,341,-5,2,11,170,729,32,-3,-9,8,12,594,222,4,-3,13,117,284,52,2,-9,6,-15,88,106,2,-2,5,22,-7,22,2,-2,2,-7,0,25,2,0,1,0,-3,-26,1,-1,0,-4,9,10,0,0,0,12,16,-37,0,0,0,-3,8,-5,0,1,0,3,-8,-22,0,0,-1,-3,-10,24,0,0,0,4,-6,-23,0,0,0,-5,-4,13,0,0,0,5,2,13,0,0,0,3,4,4,0,0,0,1,7,9,0,0,0,0,-2,-6,0,0,0,6,0,7,left
58,-129,67,-142,-509,-368,-10,41,-20,-247,-746,-161,9,35,-20,-20,-117,78,-1,1,-17,55,76,25,-5,-2,-5,25,27,-72,-14,21,-19,46,136,-42,6,-15,3,116,323,188,-3,-20,7,26,104,-70,3,0,10,-37,-35,-11,6,2,1,-28,-11,-37,4,5,3,-14,-23,5,-1,0,1,-26,-8,24,-1,0,2,-4,-22,3,0,-1,0,-14,-8,3,1,1,1,0,-13,4,0,0,0,-12,-7,10,0,0,1,8,-8,-9,0,0,0,-13,-3,4,0,0,0,4,-15,2,0,0,0,-10,3,2,0,0,0,-2,-7,6,0,0,0,-4,-5,-11,0,0,0,2,-11,10,0,-1,0,-3,-9,-4,0,0,0,10,-12,-17,0,0,0,7,0,8,0,0,0,4,-5,3,0,0,0,-2,1,-7,0,0,0,6,8,-5,0,0,0,0,7,17,left
153,-59,-20,-28,4735,917,95,-44,48,108,1570,250,64,-15,52,229,148,106,27,-33,17,-106,-257,13,17,3,22,-52,-299,220,-17,0,22,8,-1320,-320,-27,20,1,-48,-1087,-165,-29,4,-14,-82,-640,-170,-11,27,-5,159,-410,-154,-9,-10,-24,-40,-322,-89,-2,17,-19,-47,-262,36,-7,-3,-28,-221,-110,85,-13,10,-26,-104,175,12,-20,2,-18,-73,480,114,-17,9,-8,147,623,-67,-18,-5,-5,72,647,211,-10,1,5,228,571,-39,-1,-5,9,57,385,14,6,-2,11,11,147,29,6,-2,11,-42,5,74,4,0,7,-28,-19,41,2,-1,2,1,0,0,2,-1,0,-8,-8,-9,0,0,0,-10,-17,-6,0,0,0,-13,-8,6,0,1,0,4,1,-15,0,0,0,-5,-6,-3,0,0,0,-1,-5,19,0,-1,0,0,-3,-1,0,0,0,-4,-1,1,left
144,-54,55,37,3605,827,82,-28,47,6,1187,262,67,-12,62,255,133,48,37,-23,29,-62,-251,-28,26,-3,22,15,-386,133,-8,0,4,-56,-1216,-263,-19,11,-8,-36,-1040,-238,-31,5,-33,-157,-667,-100,-24,16,-23,26,-345,-102,-24,0,-23,-79,-83,-9,-19,11,-17,-17,79,40,-13,-1,-16,-32,239,42,-7,6,-3,-23,324,40,-4,2,-4,-33,369,32,-2,10,0,61,340,74,-3,0,-2,91,337,32,-1,3,3,54,294,42,-3,-5,-3,58,270,81,-1,0,3,65,195,41,0,-6,1,6,153,18,3,-1,4,-25,94,39,3,-2,4,19,35,1,3,1,4,-25,0,21,2,0,2,-4,-18,-8,0,0,2,5,-28,3,0,0,0,9,-16,-6,0,0,-1,0,-7,-15,-1,-1,-1,1,-9,-6,0,0,0,2,2,-10,0,0,0,-6,4,8,left
133,-51,62,-224,2706,551,92,-14,69,230,618,122,55,-18,45,34,-90,35,34,-10,29,-37,-321,-90,25,-10,18,-13,-409,45,-5,9,2,8,-1086,-278,-19,4,-18,-102,-879,-115,-20,11,-25,-25,-598,-203,-18,8,-31,-54,-362,-67,-19,12,-23,-33,-149,32,-17,0,-24,-35,50,74,-19,2,-19,-126,202,62,-21,3,-17,-39,391,152,-18,6,-7,61,556,81,-14,0,-6,101,610,23,-9,0,3,75,549,145,-1,-1,8,157,463,2,8,-5,14,34,288,60,10,-5,15,24,78,-42,9,-1,12,-46,-40,40,3,0,4,2,-46,-1,1,0,0,-21,-33,-16,-1,1,-1,13,-24,-38,-1,0,-1,0,-17,10,-1,0,-1,-6,-13,-6,0,0,0,-5,-6,2,0,0,0,6,1,1,0,0,0,-3,-4,4,0,-1,0,3,2,3,0,0,0,0,1,0,left
147,-50,42,-219,3456,522,89,-25,57,-42,1057,107,59,-13,65,205,-19,7,27,-16,29,-99,-342,-32,21,-5,19,44,-416,75,-11,1,4,28,-1181,-231,-21,10,-12,62,-954,-174,-25,3,-36,-161,-506,-94,-10,14,-20,50,-260,-140,-14,0,-24,-177,-103,26,-14,13,-16,-127,4,68,-18,0,-16,-132,168,101,-13,9,-6,-7,257,79,-16,0,-12,40,376,91,-11,5,-2,137,422,117,-8,-5,-4,151,445,25,0,-2,1,97,367,28,2,-5,0,50,273,-11,4,-2,7,-26,174,42,5,-1,7,-7,112,-2,4,0,8,-13,39,14,3,1,5,-12,-7,-13,1,1,2,-9,-10,18,0,0,1,19,-11,-23,0,-1,-1,1,-13,11,0,0,-1,6,5,-8,0,0,-1,3,6,1,0,0,0,-1,0,-8,0,0,0,-10,-5,5,0,1,0,1,-1,2,left
-46,46,-149,228,3241,727,47,2,1,9,2069,352,20,0,-20,-104,1536,253,37,-12,16,-23,1012,130,47,-2,50,119,312,199,46,-44,59,-68,-898,-187,10,1,25,-20,-1350,-175,12,-9,22,90,-1560,-307,-11,10,-6,-79,-1491,-188,-37,5,-51,-140,-976,-149,-31,35,-33,-52,-357,-37,-25,-1,-34,-61,7,-79,-25,6,-22,-129,266,169,-17,1,-13,40,474,40,-12,-1,-9,10,572,62,-8,3,-2,71,577,61,-5,0,4,91,514,42,1,3,9,102,395,33,1,-2,7,65,223,31,4,-1,10,1,104,60,5,-4,8,1,38,9,4,-1,5,-9,7,24,2,-1,2,1,-28,-4,0,0,0,-1,-16,17,0,-1,0,8,-17,-23,0,0,-1,4,-18,11,0,-1,0,-7,-10,-8,0,0,0,0,0,-11,0,0,0,-6,-3,9,0,1,0,2,2,-9,left
159,-55,20,-129,3898,703,123,-14,74,167,1113,206,65,-16,46,271,-53,96,29,-22,28,-61,-287,-2,22,-10,17,-9,-400,84,-11,4,11,-33,-1271,-301,-33,6,-16,-81,-1025,-188,-29,9,-24,-209,-569,-139,-14,18,-20,10,-378,-217,-18,10,-24,-107,-145,40,-14,11,-22,-36,-2,68,-16,0,-22,-91,182,124,-14,2,-12,-1,335,89,-15,3,-11,18,485,106,-9,2,-1,139,508,65,-10,-4,1,107,487,88,-2,-1,5,107,399,4,2,-1,7,42,281,9,5,-3,8,12,136,24,4,-2,8,-27,43,0,4,-1,5,-12,15,13,2,0,2,-4,0,-11,0,0,1,1,-7,-18,0,1,0,3,-6,0,0,0,0,3,0,7,0,0,0,0,-6,-3,0,0,-1,-4,3,9,0,0,0,2,-4,-1,0,0,0,-2,-1,8,0,0,0,-3,1,8,left
142,-40,50,-91,3091,365,109,14,90,506,610,66,42,-39,27,89,-174,53,23,-7,24,-166,-198,-15,21,-1,18,15,-284,67,-9,2,11,-64,-1018,-163,-26,-2,-18,-184,-763,-37,-9,21,-5,-62,-501,-95,-6,6,-16,126,-483,-92,-14,-1,-24,-86,-349,76,-13,6,-27,39,-187,-20,-23,-3,-27,-171,144,48,-20,7,-15,29,422,-11,-19,1,-13,38,617,66,-13,3,0,94,629,-63,-11,0,5,51,574,107,3,1,11,135,352,-25,3,-4,6,-7,174,10,6,-2,10,-28,29,57,3,0,6,-10,-2,23,3,-2,2,-7,7,7,1,0,0,22,25,-31,0,0,0,-5,7,6,0,0,1,2,-13,-7,0,0,0,-17,-4,6,0,1,0,2,-10,-1,0,0,0,-1,-5,22,0,0,0,-7,0,0,0,0,0,-4,10,6,0,0,0,7,5,-7,left
144,-56,34,-299,3614,556,107,-19,70,-75,1058,160,60,-9,58,140,12,54,28,-15,30,-48,-278,-27,22,-7,19,17,-374,65,-6,3,9,35,-1187,-256,-26,7,-18,10,-968,-160,-23,5,-30,-124,-585,-120,-13,12,-25,-8,-335,-110,-14,9,-21,-55,-131,-36,-17,5,-24,-64,25,71,-15,2,-18,-53,186,87,-15,-2,-16,24,291,37,-12,2,-6,-13,388,64,-11,0,-6,38,412,60,-6,6,2,79,415,88,-3,0,4,90,358,-4,2,2,9,28,300,104,4,-3,6,79,187,-10,5,-3,8,-3,106,50,5,-4,5,23,30,8,5,-1,4,-23,12,1,2,0,2,-11,-14,-12,1,0,2,-19,-23,-12,0,1,0,12,-13,2,-1,0,0,-18,-8,8,-1,0,0,7,-13,-9,0,0,0,-2,-1,13,0,0,-1,0,5,-7,0,0,0,-13,0,10,left
149,-82,35,-316,3123,786,108,-15,65,-27,718,327,52,-11,47,84,-60,129,28,-13,31,-19,-211,-48,18,-5,19,32,-265,66,-11,6,13,45,-1018,-260,-25,4,-11,37,-816,-193,-17,6,-17,-55,-553,-239,-11,7,-21,-6,-439,-173,-7,7,-15,-7,-306,-42,-12,11,-23,160,-121,-60,-13,-4,-20,-182,41,74,-11,6,-15,-173,127,71,-14,3,-13,-123,209,188,-20,11,-12,-79,372,-36,-15,0,-7,-72,496,230,-11,8,-1,182,539,127,-9,-8,0,174,504,52,-1,0,11,137,427,30,7,-14,8,38,216,-14,7,0,10,-64,36,34,4,-2,7,-25,-43,21,4,1,4,16,-35,-25,2,0,-1,-5,-32,-13,0,0,0,23,-21,-29,0,-1,-1,-7,-12,13,0,0,-1,9,-14,-17,0,0,-1,-18,-12,-3,0,0,0,20,3,-6,0,0,0,0,0,11,left
149,-65,17,-111,3820,730,91,-24,43,-59,1401,242,84,-5,71,269,176,91,37,-19,31,-37,-250,26,25,-8,25,-12,-357,112,-7,-2,12,-12,-1196,-298,-16,6,-1,-39,-1066,-248,-32,-2,-33,-234,-669,-128,-13,19,-23,-102,-393,-159,-8,9,-28,-85,-265,-21,-11,14,-23,-172,-188,208,-17,2,-27,11,-7,61,-18,4,-17,17,287,75,-19,0,-18,161,484,-19,-17,2,-6,115,607,205,-12,1,0,219,625,-135,-3,1,10,55,522,41,2,0,6,61,286,-2,6,-3,15,-37,120,102,4,-4,10,-22,20,49,5,-2,6,-18,10,24,3,-2,1,-12,4,-13,1,0,0,-1,-10,-21,0,-1,0,7,0,18,0,0,0,3,6,-23,-1,0,0,3,-16,-3,0,0,0,6,-12,9,0,0,0,-10,1,0,0,0,0,-9,-8,-5,0,0,0,-14,-7,7,left
150,-52,10,-21,4208,763,131,-17,85,102,1181,315,72,-8,69,182,-95,167,28,-20,39,-1,-377,-15,21,-8,21,47,-423,43,-8,-2,14,6,-1331,-340,-36,9,-23,-59,-1012,-227,-31,6,-40,-137,-483,-265,-9,17,-29,-82,-225,-178,-11,10,-26,-99,-74,-8,-14,13,-22,-138,5,149,-14,-3,-19,-64,103,107,-15,0,-6,-93,224,204,-18,3,-10,98,323,28,-14,2,0,55,406,137,-12,4,-1,163,448,-23,-4,1,5,98,424,106,0,0,4,140,325,-50,5,-4,7,0,211,49,5,-2,6,10,96,22,6,-4,6,-17,42,45,4,-1,3,-7,15,-11,3,-1,2,-11,-11,-2,1,0,1,-9,-11,-11,0,0,0,-7,-9,17,0,1,0,-3,-12,-26,0,0,0,8,-4,24,0,0,0,0,-3,-12,-1,-1,0,8,9,13,0,0,-1,-1,-5,-11,left
148,-53,4,-228,4114,775,123,-15,77,18,1196,293,65,-1,64,199,4,171,24,-18,37,18,-286,21,19,-12,23,46,-331,80,-11,-1,15,46,-1232,-348,-34,3,-17,-30,-969,-223,-27,1,-31,-151,-518,-217,-11,15,-27,-69,-276,-236,-13,12,-20,-146,-140,-32,-10,15,-17,7,-43,59,-10,0,-14,-65,90,139,-9,0,-6,-142,155,115,-7,2,-3,-6,176,165,-9,1,-9,23,213,41,-12,-1,-7,-34,282,72,-11,4,-7,87,320,116,-8,0,-8,201,351,-40,-5,-4,-4,76,348,43,0,-1,4,82,273,5,3,-2,6,47,192,26,6,-1,8,-13,93,-4,4,0,8,-20,16,14,3,1,6,-10,-10,-3,1,0,2,3,-13,-16,0,0,0,-14,-17,17,0,0,0,25,-10,-12,-1,-1,-2,-8,-3,4,0,0,-1,3,0,-3,0,0,0,-2,6,13,left
149,-49,2,-248,4338,769,134,-11,80,5,1303,334,78,0,69,180,34,215,34,-21,41,38,-280,36,21,-16,22,-17,-343,72,-7,-4,18,48,-1267,-361,-32,0,-13,-40,-1003,-256,-30,3,-33,-121,-548,-320,-12,17,-29,-129,-326,-207,-7,17,-24,-75,-225,-44,-15,10,-22,-118,-153,124,-15,1,-24,-115,-28,96,-18,0,-16,-147,101,204,-21,4,-13,27,310,95,-18,4,-7,72,457,84,-11,6,-4,116,510,25,-9,5,2,168,491,59,1,-1,6,163,415,-7,6,-3,9,92,234,67,5,-5,9,14,115,57,5,-2,8,25,51,11,5,-3,5,-16,28,11,2,0,3,3,12,-19,1,-2,1,-30,7,28,0,0,2,9,-9,-39,0,-1,1,-29,-14,13,0,1,0,0,-12,-23,0,-1,0,-22,-3,36,0,0,0,18,-1,-26,0,0,-2,-13,2,17,left
137,-53,60,-160,3115,871,103,-13,98,197,554,407,48,-21,50,65,-134,188,23,-21,35,-54,-255,-24,14,-8,23,-2,-253,50,-11,-2,10,37,-940,-321,-27,1,-20,-125,-621,-259,-15,11,-17,-78,-404,-298,-6,15,-20,-45,-342,-166,-2,5,-22,-119,-345,14,-6,9,-21,-221,-338,173,-11,3,-26,-86,-211,107,-14,4,-17,36,14,63,-17,3,-21,16,291,45,-16,8,-15,118,466,118,-18,4,-13,255,604,4,-8,0,0,139,603,-53,-3,-2,0,23,489,91,3,-1,11,83,273,94,3,-4,12,5,146,20,6,-1,12,-40,67,60,5,0,8,3,28,2,4,-1,4,5,0,-11,0,-2,0,-17,-9,-4,0,0,1,8,-3,-16,0,0,0,0,-15,-3,0,0,0,9,-17,-9,0,0,0,-19,-15,6,0,0,1,18,-4,-7,1,0,-1,-6,-9,22,left
144,-56,40,-374,3900,969,123,-18,85,-2,1061,375,54,-11,63,149,-42,169,27,-17,42,36,-300,5,19,-12,25,16,-344,151,-10,0,19,118,-1193,-358,-33,0,-16,7,-932,-302,-16,7,-23,-137,-551,-277,-11,8,-30,-95,-377,-183,-9,9,-21,-165,-263,-87,-12,8,-31,-160,-164,-13,-12,9,-31,-170,-31,151,-17,5,-25,-44,215,62,-14,9,-19,25,460,175,-16,5,-13,160,567,63,-12,3,-3,135,572,136,-7,-1,11,174,550,89,0,-5,11,91,372,59,4,-1,17,52,166,48,6,-2,11,-4,52,37,6,-1,9,-4,15,-1,3,-1,3,-6,-6,-4,2,-1,0,3,-6,-1,1,-2,-1,-1,-5,-5,1,0,0,-2,-11,-20,-1,0,-1,-13,-13,2,0,0,0,4,0,5,0,0,0,0,-5,3,0,0,0,-6,-3,-15,0,0,0,0,6,20,left
137,-75,44,-125,4096,708,121,-10,106,165,1163,191,87,-19,73,349,-277,10,24,-12,31,-212,-446,19,23,-7,23,47,-492,116,-8,5,9,-103,-1378,-203,-35,7,-30,-84,-1066,-240,-45,9,-36,-263,-421,29,-15,8,-21,164,-196,-264,-20,4,-25,-230,3,76,-14,9,-24,-89,74,58,-17,-1,-25,-55,230,118,-12,1,-19,17,378,-49,-10,2,-15,0,472,99,-9,4,-6,195,457,146,-12,0,-1,227,478,-32,0,-3,11,85,377,0,0,1,8,35,211,29,3,0,11,22,80,25,2,-1,7,-20,36,9,5,-1,6,-5,5,-10,0,0,1,-3,-2,8,1,-1,1,2,-5,-14,0,0,-1,-22,-4,-3,2,0,0,-1,-10,-7,1,1,0,0,-10,5,1,1,0,-3,-9,18,0,0,0,3,-13,0,0,0,0,10,-10,8,0,0,-1,11,4,-6,left
159,-44,35,-184,3881,772,136,-7,116,269,900,289,76,-13,76,161,-182,115,27,-20,36,-157,-371,-26,19,-6,25,14,-420,44,-11,-2,10,-22,-1287,-316,-36,6,-33,-182,-963,-201,-32,11,-40,-151,-511,-143,-12,14,-29,52,-301,-179,-11,10,-25,-141,-120,30,-18,11,-24,-15,32,133,-15,-1,-16,-74,218,104,-18,1,-14,12,383,56,-15,4,-8,29,478,138,-11,-1,-5,128,479,10,-4,1,4,71,465,99,-3,-1,1,136,374,-2,5,-4,8,48,241,49,5,-1,8,44,123,-6,4,-1,6,-4,60,-2,4,0,4,18,7,19,2,0,2,16,3,-13,0,0,1,-3,-8,-9,0,0,0,-6,-14,7,0,0,0,7,-9,6,-1,0,0,-20,-5,-5,0,0,0,-2,-11,-4,0,0,0,-2,-2,16,0,0,0,5,-1,-6,0,0,0,-6,1,14,left
152,-80,42,-70,3761,852,128,-29,118,375,743,245,59,-36,55,16,-216,87,23,-15,39,-130,-384,-87,19,-11,23,-19,-432,64,-9,2,13,-79,-1279,-398,-34,13,-35,-257,-907,-191,-21,25,-27,-85,-495,-207,-6,15,-30,13,-311,-116,-11,11,-25,-85,-156,73,-21,13,-28,-24,47,148,-19,-1,-19,26,253,109,-20,-1,-18,30,423,78,-17,-1,-9,71,531,127,-14,1,-5,113,574,14,-2,0,4,127,495,70,1,0,7,82,378,7,5,-1,14,41,219,72,6,-1,11,20,98,23,6,-2,9,-9,25,18,3,0,5,0,-1,0,1,-1,0,3,-15,-21,1,-1,0,3,-4,-4,-1,0,-1,-6,-4,-2,0,0,0,0,-5,-6,0,0,0,-12,-8,-9,0,1,0,5,-2,24,0,0,0,-2,-5,-1,0,0,0,2,4,-2,0,0,0,-9,-3,5,left
152,-38,84,400,-1659,-737,62,-10,22,-55,-1308,-403,36,14,-8,145,-1057,-291,22,2,-7,-117,-842,-70,16,13,-11,69,-644,-172,-18,6,-27,-184,-262,182,-15,10,-18,118,-9,1,-17,-11,-7,-20,172,216,-16,0,-11,102,321,-82,-21,-13,-4,-26,401,71,-17,4,-7,161,461,-167,-16,-3,-2,-99,446,-14,-9,6,4,-42,408,55,-6,0,10,-19,331,67,1,1,12,-24,250,41,4,-1,15,-42,147,158,5,-2,10,19,94,54,5,-3,6,-24,63,48,6,0,5,20,34,-14,5,0,2,-9,-7,-1,2,0,1,-14,-15,23,1,0,0,-8,-5,0,0,0,0,6,0,-17,0,0,0,-11,-14,7,0,-1,0,-9,7,14,0,0,0,7,10,2,0,1,0,-4,1,-15,0,0,0,-6,-8,18,0,0,0,9,5,-9,0,0,1,6,-3,-20,left
122,21,95,70,-1176,116,85,4,51,-59,-1020,90,61,8,31,119,-908,-7,38,0,0,138,-819,-111,22,-1,-19,10,-689,-144,-22,-4,-59,86,-379,-244,-40,1,-78,-28,-13,-206,-61,6,-68,-16,345,-141,-60,9,-48,-124,666,152,-45,14,-15,-10,868,67,-15,10,6,-64,934,378,0,4,32,62,844,362,24,-6,30,-3,670,384,33,-8,34,-26,494,255,30,-14,25,-27,356,39,22,-12,29,-81,193,38,19,-7,31,61,23,-114,13,-9,23,-82,-116,-62,12,0,24,17,-230,-155,3,-1,19,0,-329,-87,1,0,15,36,-371,-152,-6,-3,4,-83,-356,-8,-9,2,5,18,-305,-95,-14,-2,-3,13,-252,-42,-12,1,-3,6,-201,-79,-12,0,-6,11,-141,-32,-9,3,-6,1,-98,-18,-6,0,-5,11,-51,-10,-2,0,-4,-1,-20,3,-1,0,-1,8,4,-8,right
134,25,89,217,-1380,-41,91,8,42,244,-1020,-124,57,-1,18,206,-887,-207,39,-1,0,126,-789,-253,24,-1,-18,87,-683,-265,-9,-2,-47,30,-381,-330,-35,2,-60,-46,-127,-350,-42,15,-55,-194,196,-142,-47,20,-45,-96,498,42,-42,18,-18,-143,733,282,-27,15,-2,-62,852,321,-4,9,15,-26,857,554,10,-3,23,103,740,501,19,-8,22,11,589,484,24,-11,19,17,451,247,21,-13,15,-13,345,136,17,-11,16,-18,184,14,15,-13,16,-53,28,-13,13,-11,25,-38,-132,-69,11,-8,26,-23,-271,-186,4,-3,23,-42,-415,-162,-5,-3,20,-45,-453,-89,-13,3,10,17,-405,-171,-20,2,0,44,-299,-153,-22,3,-7,92,-219,-125,-20,-2,-6,57,-124,-74,-15,-1,-9,54,-61,-76,-8,-2,-6,8,-35,-39,-3,-1,-4,-12,-31,-16,-2,0,-3,-27,-5,15,right
119,31,103,94,-1182,53,88,9,47,170,-963,-77,63,6,19,246,-823,-152,43,0,-2,173,-705,-194,28,4,-11,125,-610,-179,-4,-2,-40,161,-391,-317,-21,0,-49,-13,-222,-302,-36,4,-51,-173,19,-199,-38,11,-42,-134,300,-75,-40,14,-28,-145,569,59,-36,15,-11,-57,738,298,-21,12,5,-31,816,445,-2,4,21,63,777,387,8,0,27,56,638,530,19,-13,23,17,495,334,33,-15,23,-111,379,247,26,-14,18,-1,290,72,23,-14,14,-42,151,26,20,-13,19,-73,-1,-32,17,-7,21,-40,-154,-117,9,-4,14,-60,-255,-134,7,0,17,-42,-335,-123,-2,0,15,-4,-365,-121,-8,2,6,8,-360,-113,-13,2,1,35,-309,-114,-16,0,-2,67,-249,-128,-18,-2,-7,46,-182,-56,-13,0,-10,15,-97,-58,-9,0,-7,21,-21,-32,-5,0,-4,-13,-7,-35,right
135,18,82,304,-1314,-200,90,5,43,202,-1020,-209,60,0,17,198,-889,-280,39,2,-1,142,-796,-297,31,6,-14,135,-740,-288,-12,7,-49,269,-450,-356,-40,4,-60,-58,-36,-266,-49,21,-48,0,332,-115,-50,21,-35,-61,593,255,-52,13,-10,-92,837,114,-30,7,11,-321,925,654,-2,8,25,-54,775,480,8,-12,22,-101,585,624,20,-17,23,-76,505,386,29,-16,14,-147,414,233,27,-18,12,-115,322,77,25,-14,13,-104,180,-74,28,-7,22,-63,24,-207,22,-3,20,-76,-161,-165,9,0,15,81,-302,-201,2,2,15,112,-398,-172,-8,2,9,146,-449,-156,-20,0,-3,54,-385,-1,-22,-1,-7,109,-312,-61,-18,-3,-5,67,-225,-56,-17,-2,-8,-12,-152,-15,-14,-2,-7,7,-79,-42,-9,-1,-5,-25,-31,-13,-6,1,-1,29,18,-87,-5,1,-3,-37,48,-15,right
133,21,81,455,-1285,-147,97,0,39,316,-968,-246,65,1,28,287,-851,-360,46,4,8,79,-812,-305,35,11,-5,105,-758,-242,0,7,-39,11,-524,-209,-24,11,-49,72,-248,-356,-32,6,-62,-196,87,-24,-38,12,-44,-10,406,115,-49,-3,-36,-22,714,333,-37,0,-15,-89,922,176,-19,-2,0,-144,940,459,2,0,20,-19,818,548,14,-8,17,-149,698,302,33,0,28,-156,573,284,39,0,33,51,453,7,38,-2,33,46,279,59,22,-6,31,197,47,-12,19,-17,30,96,-126,-44,6,-15,20,64,-318,-185,-2,-17,17,-92,-477,-49,-12,-7,11,-118,-523,-94,-15,-4,0,-183,-420,-77,-19,11,-2,-36,-336,-118,-15,9,-2,31,-240,-120,-17,7,-8,39,-149,-87,-12,2,-9,40,-92,-41,-9,2,-6,47,-51,-26,-7,-1,-6,62,-19,-27,-4,0,-4,5,1,3,right
138,5,74,-25,-1512,86,77,-3,32,96,-1054,-67,51,5,13,6,-879,-100,32,6,-2,93,-766,-149,21,0,-15,83,-675,-128,-12,-4,-41,72,-379,-295,-22,-1,-48,133,-188,-352,-29,-2,-52,75,62,-343,-29,11,-48,-130,316,-66,-40,20,-24,-103,631,240,-32,22,-12,-9,831,199,-19,19,5,-158,913,342,-7,10,16,-31,870,685,2,-12,25,53,784,567,23,-21,16,-28,616,207,27,-23,18,-203,438,168,25,-13,16,-46,272,12,25,-9,21,-130,76,4,21,-3,26,-114,-122,-117,15,1,29,-16,-294,-95,11,4,29,175,-366,-207,-1,-2,23,33,-418,-92,-12,-4,15,124,-411,-108,-18,-4,4,103,-337,-152,-22,-6,-2,60,-267,-167,-23,-3,-7,-33,-216,-74,-16,-5,-10,-27,-149,-79,-11,-1,-9,-69,-60,-11,-5,1,-5,-26,-17,-10,-2,3,-2,-20,6,-14,right
144,23,70,39,-1405,76,90,14,39,281,-1087,-78,64,8,12,198,-964,-115,46,6,-3,240,-871,-210,34,2,-13,183,-765,-217,1,-3,-39,196,-527,-442,-18,-3,-61,62,-245,-479,-24,13,-63,-216,83,-298,-45,12,-53,-106,448,-53,-45,21,-28,-227,758,253,-37,19,-8,-152,964,144,-15,16,18,-145,942,804,-8,-3,30,157,854,530,19,-5,34,-34,680,640,23,-18,21,58,486,370,18,-18,14,-89,373,226,11,-19,12,-80,269,59,14,-15,12,-131,158,-43,10,-11,15,-56,27,-97,11,-4,17,-3,-110,-176,9,0,20,-17,-262,-150,8,2,22,26,-370,-114,-2,1,19,57,-425,-112,-9,-1,11,32,-422,-122,-15,-2,5,7,-372,-88,-18,-2,-1,76,-282,-123,-21,-3,-12,43,-173,-110,-17,-1,-10,12,-107,-104,-13,0,-8,27,-40,-40,-9,0,-4,0,8,-15,right
122,41,98,-88,-1195,-152,95,32,48,216,-1052,-104,75,14,19,149,-931,-82,58,5,1,269,-856,-167,37,0,-14,101,-774,-214,3,-5,-48,189,-544,-318,-17,-8,-63,24,-277,-295,-40,8,-58,30,84,-385,-48,14,-48,-177,387,-18,-47,17,-22,-82,677,28,-39,15,-4,-157,839,312,-26,14,14,-109,902,385,-5,-1,19,-107,810,665,1,-7,22,-72,722,591,17,-7,11,-146,581,450,22,-15,15,-196,490,281,22,-13,13,-131,363,59,24,-10,19,-175,199,-69,26,-4,28,18,18,-153,18,-3,29,72,-186,-210,15,2,28,138,-379,-260,1,-3,21,125,-486,-143,-9,-2,14,159,-496,-168,-18,-7,0,64,-413,-47,-22,-7,-2,40,-290,-78,-24,-3,-9,48,-174,-75,-17,-2,-5,15,-93,-48,-13,-2,-5,6,-56,-71,-9,0,-4,-48,-42,19,-4,0,0,7,-21,-6,right
139,66,36,-91,-1693,346,82,45,26,287,-1091,34,56,19,13,583,-906,-176,37,3,-7,391,-821,-277,26,-2,-17,325,-727,-289,-9,-16,-40,155,-350,-517,-20,-9,-61,-107,-109,-506,-34,5,-67,-606,209,4,-42,19,-43,-255,621,48,-42,20,-24,-342,890,354,-25,27,1,-98,1004,371,-12,12,22,26,970,951,5,-3,39,282,832,447,21,-15,32,-73,553,441,26,-17,27,-75,349,200,20,-23,23,-181,168,102,18,-18,24,-127,9,-65,15,-14,18,-137,-162,-182,16,1,21,-52,-286,-221,8,1,17,79,-376,-171,1,2,12,96,-411,-212,-7,0,8,123,-389,-113,-18,2,3,95,-309,-65,-26,-5,-3,63,-214,-67,-20,-2,-3,36,-112,-28,-16,-2,-3,47,-50,-91,-10,-1,-6,-38,-34,-16,-1,0,-4,10,-16,-10,0,1,-3,3,-4,-42,0,1,0,-15,-14,25,right
150,5,72,9,-1649,-50,91,2,33,123,-1146,-131,54,5,19,275,-913,-238,33,7,4,214,-833,-252,23,8,-7,217,-765,-253,-8,3,-43,159,-355,-322,-19,6,-54,116,-59,-411,-18,3,-58,-76,207,-172,-26,4,-46,-212,512,79,-30,8,-25,-149,783,210,-28,12,1,-105,827,324,-17,10,20,-149,768,498,-8,6,30,-68,680,697,8,-2,29,7,552,423,17,-16,21,-117,421,339,20,-17,18,-127,354,146,20,-17,14,-109,242,21,14,-16,9,-129,120,-18,13,-9,13,-53,-14,-136,16,-3,18,-38,-146,-209,10,0,17,-1,-290,-141,-1,0,15,41,-379,-123,-5,4,14,72,-434,-99,-13,0,5,52,-385,-89,-22,1,-4,96,-313,-135,-22,0,-7,70,-224,-78,-18,-1,-9,66,-129,-50,-12,-3,-9,61,-35,-77,-5,0,-5,25,-7,-63,-1,0,-2,25,12,-26,right
116,44,101,-247,-1091,211,70,18,51,68,-974,-17,56,5,24,188,-803,-153,39,4,3,150,-720,-203,25,3,-8,115,-640,-154,-2,-8,-39,118,-463,-279,-17,-4,-49,14,-246,-334,-28,6,-56,-124,0,-180,-36,9,-46,-114,314,-76,-40,9,-34,-119,574,233,-36,12,-14,-98,794,249,-21,9,-2,-72,893,420,-9,0,16,-43,860,440,5,-6,23,-87,699,479,21,-6,26,-109,503,348,30,-6,26,-76,335,212,21,-6,26,-104,165,113,14,-9,22,-178,43,34,16,0,22,-73,-30,-105,10,-4,21,13,-95,-171,1,-4,12,1,-182,-166,1,-6,12,54,-252,-162,0,0,13,193,-335,-204,-11,-8,4,91,-392,-96,-15,-2,0,47,-353,-109,-16,-3,-4,55,-281,-57,-15,0,-9,27,-195,-67,-14,-2,-11,3,-94,-19,-7,1,-7,15,-16,-51,-4,1,-7,14,9,-28,right
142,27,83,351,-1338,-232,84,13,53,176,-1025,-140,59,18,28,337,-919,-202,33,9,-2,186,-809,-187,18,2,-22,77,-642,-220,-16,-1,-51,17,-286,-94,-35,-3,-59,138,-17,-207,-54,-11,-57,-140,308,-34,-47,-2,-32,-179,589,55,-36,6,-6,-76,730,200,-25,5,11,-92,772,174,-7,7,18,-222,745,330,17,7,24,-92,635,317,24,0,21,-36,497,234,30,-5,17,-71,374,155,27,-7,14,-50,240,74,29,-8,11,-75,91,8,29,-6,14,-50,-31,-38,22,-2,15,0,-120,-74,14,-1,19,0,-235,-56,6,3,19,21,-314,2,-5,2,15,44,-328,-65,-17,1,8,77,-305,-60,-19,-3,3,103,-288,-45,-20,-3,-6,114,-212,-86,-17,-7,-9,35,-139,-67,-11,-4,-5,46,-79,-85,-6,-3,-6,5,-44,-72,-2,0,-3,-52,-30,-31,0,0,0,-45,-12,8,right
127,55,76,99,-1249,91,78,20,25,391,-943,-86,49,7,5,261,-794,-129,30,4,-4,230,-694,-186,18,3,-11,209,-600,-160,-11,-4,-31,201,-368,-319,-19,0,-30,-21,-231,-217,-26,1,-30,-73,-67,-147,-30,0,-26,-202,140,-80,-29,5,-21,-223,347,2,-28,3,-18,-227,531,194,-29,1,-10,-155,673,328,-16,5,0,-111,740,315,0,7,6,-14,739,312,10,2,13,-20,666,343,19,0,19,-50,563,331,27,-2,18,-45,447,194,29,-5,19,-33,320,105,22,-4,16,49,143,45,17,-12,20,-5,-10,34,14,-7,22,16,-175,-43,9,-8,24,-28,-298,-88,-1,-4,16,19,-386,-139,-5,-5,15,-72,-403,-64,-8,2,7,15,-373,-160,-14,-1,-2,21,-277,-145,-19,1,-8,85,-204,-158,-15,-2,-7,20,-133,-41,-13,0,-7,48,-65,-103,-11,0,-6,11,-27,-37,right
-21,12,-157,199,-2111,-1088,-35,21,-85,98,-704,-424,-34,15,-58,-27,-223,-84,-26,13,-39,24,33,41,-16,6,-28,3,157,-176,-3,3,8,-69,700,277,9,-4,13,-66,632,363,22,-4,18,-58,534,266,26,-6,18,-116,401,175,28,0,18,-94,291,82,21,-2,17,-28,169,-14,20,-1,18,-13,63,-39,17,-4,17,19,-40,-76,13,-1,14,62,-149,-148,5,-4,11,21,-263,-76,5,-1,9,19,-319,-80,-2,-1,5,-16,-347,-41,-9,0,2,40,-326,-67,-11,0,0,20,-268,5,-12,1,-1,69,-189,-91,-14,0,-6,53,-132,-23,-9,0,-4,83,-73,-57,-8,0,-7,47,-30,-53,-5,-1,-5,20,-10,-10,-2,-2,-3,21,10,-1,-1,-1,-1,-5,8,7,0,0,0,-23,5,-17,1,0,1,-13,-8,29,1,0,1,9,-6,-20,1,0,1,2,-18,17,right
-65,5,-141,181,-1639,-1019,-35,15,-90,-198,-585,-222,-26,11,-61,-33,-103,-37,-21,6,-42,-11,139,42,-12,7,-27,-17,228,-235,6,5,7,-46,643,371,16,2,20,79,630,239,20,-3,26,27,517,177,21,-5,27,-55,344,146,24,-4,21,-101,221,79,16,-4,20,-43,117,15,7,-10,15,-35,9,-79,8,0,16,-29,-116,-48,12,-2,15,41,-179,-103,4,-5,8,78,-257,-99,8,-3,7,-12,-297,-126,2,1,5,0,-326,-49,-6,0,-1,-30,-318,-20,-13,4,-4,-13,-281,-18,-14,4,-1,12,-187,-17,-15,3,-5,61,-124,-24,-9,1,-3,28,-58,10,-5,-1,-4,60,1,-35,-2,-1,-4,15,16,-16,-1,-1,-1,25,9,-33,-2,-1,-1,-6,3,9,0,0,0,7,-10,-13,0,0,-1,-23,-19,28,0,0,0,19,0,-1,1,0,0,0,-7,7,right
-23,28,-153,457,-1843,-1168,-36,18,-81,25,-626,-395,-34,17,-54,-60,-168,-114,-24,14,-37,18,71,12,-15,9,-28,23,176,-249,-4,2,9,-69,670,332,8,0,15,-5,610,329,18,-5,18,-26,511,306,22,-4,19,-90,384,190,21,-6,21,-73,297,123,19,-6,17,-83,177,36,19,-8,16,-50,50,19,17,-8,17,3,-76,-92,11,-9,13,17,-158,-117,2,-5,8,-29,-268,-115,1,-1,12,14,-322,-102,-6,1,8,-11,-308,-73,-13,1,4,16,-275,-102,-12,3,3,35,-268,-27,-9,1,2,61,-201,-107,-14,0,-6,58,-159,-35,-10,0,-4,50,-105,-63,-6,1,-5,58,-61,-44,-5,-1,-6,8,-12,-23,-3,0,-3,26,3,-42,0,0,-1,-5,9,18,0,0,0,-6,-8,-2,0,0,0,-16,-2,25,0,0,0,14,-2,5,0,0,0,-10,-10,2,right
-23,22,-161,211,-2061,-1377,-28,19,-83,-75,-693,-436,-33,19,-60,-126,-196,-83,-27,11,-39,22,50,11,-15,8,-28,6,173,-306,-3,2,10,-43,699,354,7,-1,15,49,631,383,21,-7,24,53,517,226,24,-5,23,-59,408,189,25,0,27,37,287,63,22,-5,27,93,135,48,18,-7,19,-54,29,76,14,-7,20,3,-81,-5,13,-7,17,0,-184,-74,4,-11,9,-109,-263,-54,0,-5,4,-164,-286,-4,-1,-2,7,-49,-306,-99,-6,1,1,-33,-278,-117,-9,3,-1,-23,-251,-84,-11,4,0,36,-190,-107,-13,2,-4,84,-124,-79,-12,0,-6,88,-70,-111,-8,0,-5,47,-36,-38,-6,0,-3,57,-18,-36,-3,-2,-3,31,-13,-27,-2,-1,-1,-5,-11,-29,0,1,1,-6,-16,-2,-1,1,0,-3,-5,15,0,0,0,5,6,16,0,1,0,-14,1,-24,right
84,44,-127,416,-3154,-1194,22,25,-79,250,-1360,-607,-3,18,-66,147,-634,-344,-21,11,-48,54,-237,-192,-20,10,-40,31,-46,-309,-34,2,-10,-114,702,217,-20,0,0,-115,755,289,-3,-1,12,-102,680,285,17,0,15,-81,553,280,23,0,18,-92,455,294,25,-1,19,-30,372,154,22,0,18,-8,257,116,20,-4,14,-35,170,74,19,-1,15,-45,57,53,14,-8,18,4,-25,0,6,-9,13,52,-105,-72,2,-10,14,-14,-194,-88,-3,-5,16,32,-255,-105,-11,-6,10,62,-283,-120,-11,0,5,52,-300,-158,-9,1,2,8,-305,-74,-11,2,-2,32,-250,-118,-10,1,-5,45,-198,-42,-7,1,-4,30,-137,-43,-6,-1,-5,18,-89,-28,-6,-2,-3,4,-30,-11,-4,0,-3,6,-25,-38,-3,0,-2,-25,-15,13,-3,0,-1,-6,4,8,-1,1,0,-8,10,0,right
3,29,-155,614,-2536,-1331,-20,10,-92,132,-933,-546,-24,15,-65,46,-349,-216,-23,10,-44,-2,-61,-43,-17,7,-30,-12,91,-289,-9,2,6,-157,698,291,2,2,15,-97,641,331,13,-3,20,-75,540,296,19,-5,17,-119,439,214,22,-1,17,-98,330,90,17,-3,12,-41,245,93,14,-2,8,-56,176,-29,11,-3,8,-4,96,16,13,0,11,81,-8,-117,8,-3,6,59,-87,-55,7,-2,10,44,-162,-33,7,-2,14,82,-240,-74,1,-1,10,31,-292,-29,-2,-2,8,25,-299,-58,-4,-2,7,38,-303,-33,-10,-1,2,27,-260,-77,-13,0,-1,13,-195,-64,-11,1,-2,24,-139,-68,-12,1,-4,32,-89,-37,-9,0,-5,25,-35,-29,-4,-1,-4,12,-20,-8,-3,-1,-3,4,0,7,0,-2,-1,2,12,6,0,-1,0,-10,7,22,0,0,1,-14,1,8,right
-56,7,-146,240,-1893,-1224,-42,13,-76,-18,-556,-431,-33,12,-49,-64,-136,-124,-23,10,-30,-61,82,31,-13,7,-21,-44,174,-246,5,5,12,-119,647,337,14,0,16,-72,545,319,21,-1,17,-72,462,288,21,-2,12,-20,358,124,22,-3,13,14,300,71,15,-4,11,8,191,45,16,-2,13,59,118,-7,14,-3,15,126,16,-30,13,-6,19,123,-107,-104,3,-7,13,6,-230,27,3,-6,13,46,-272,-65,-4,-8,7,0,-301,-62,-5,-7,2,-74,-316,-81,-8,-2,2,-86,-270,-16,-8,0,2,2,-219,-108,-10,2,-2,-31,-180,-76,-8,6,0,5,-134,-59,-10,4,-2,46,-76,-47,-7,2,-4,39,-51,-63,-5,0,-5,23,-17,0,-3,-1,-4,49,6,-49,-1,-2,-3,22,-7,0,-1,-1,-1,15,-13,4,-1,0,-2,-3,4,2,0,0,0,14,-1,-25,right
57,69,-129,119,-2509,-1269,17,24,-79,26,-985,-503,-2,12,-57,19,-483,-232,-14,6,-42,-44,-186,-110,-13,8,-30,-70,-28,-336,-19,-2,0,-68,577,267,-9,4,11,-39,553,269,0,4,17,-27,501,249,15,7,17,8,431,232,16,-1,14,51,339,227,15,-3,8,7,276,138,10,-8,5,-3,233,159,12,-7,5,-14,195,34,7,-8,7,-30,132,66,10,-4,9,-60,84,-1,5,-4,14,-18,-3,-22,3,-3,11,-38,-81,-53,0,-2,11,-38,-133,-65,0,-2,9,11,-167,-53,0,0,7,37,-205,-98,-1,-4,7,22,-215,-69,-1,-1,8,23,-243,-87,-5,-1,4,33,-250,-83,-8,0,1,39,-255,-70,-11,-2,-1,7,-211,-66,-12,1,-5,14,-151,-49,-11,1,-6,12,-82,-60,-8,0,-5,9,-35,-56,-6,1,-3,-19,-1,3,-2,2,-1,21,15,-35,right
132,30,81,41,-1179,-19,84,13,42,276,-1062,-48,61,10,18,266,-991,-99,39,11,0,224,-895,-117,27,9,-13,250,-744,-192,-6,1,-43,243,-455,-279,-22,-1,-53,30,-152,-305,-27,1,-54,-137,169,-110,-32,0,-44,-230,421,-26,-45,-5,-29,-175,655,13,-39,2,-7,-251,767,203,-22,13,8,-156,737,319,-15,6,23,-21,683,478,-2,3,26,55,615,218,20,2,24,-145,468,315,24,-4,16,-72,363,235,20,-15,10,-123,331,143,19,-14,4,-157,253,-1,21,-10,7,-64,198,-16,18,-4,12,37,70,-195,15,-4,18,32,-56,-109,9,1,17,79,-169,-99,6,4,20,133,-280,-183,-1,1,16,27,-360,39,-6,1,9,14,-358,-4,-7,1,5,63,-317,-15,-9,0,4,93,-287,-42,-12,-2,-2,44,-228,10,-11,-4,-3,45,-164,-42,-9,-3,-3,21,-104,-68,right
134,27,76,411,-1428,-238,76,9,24,330,-1117,-203,49,4,1,157,-951,-170,34,3,-6,208,-819,-227,21,3,-16,116,-675,-259,-11,3,-37,13,-365,-273,-21,8,-40,-60,-110,-182,-37,7,-38,-51,196,-211,-39,10,-36,-152,445,-19,-35,11,-22,-147,618,146,-28,3,-11,-75,764,290,-14,0,2,-89,793,357,7,1,15,-49,724,398,14,-3,21,-21,629,484,20,-5,24,40,546,239,23,-6,19,-19,427,218,17,-9,17,-4,340,69,16,-9,11,-149,204,97,19,-8,17,-52,93,-78,10,-8,11,-81,-79,-41,8,-3,19,-72,-261,-134,6,0,18,-66,-392,-39,0,2,18,120,-441,-190,-10,2,4,28,-458,-111,-7,2,5,56,-392,-93,-12,0,-6,73,-274,-101,-16,0,-8,88,-174,-115,-16,-3,-9,38,-110,-58,-13,-2,-5,25,-66,-26,-10,-2,-6,15,-16,-19,right
140,9,69,396,-1642,-264,77,11,28,230,-1125,-250,50,9,6,237,-947,-238,33,5,-2,135,-825,-207,23,6,-13,122,-696,-221,-9,3,-34,-8,-340,-186,-23,0,-40,-35,-99,-178,-32,0,-40,-80,213,-73,-34,3,-36,-96,459,-20,-35,4,-22,-155,669,198,-28,7,-9,-51,806,238,-12,5,4,-15,809,280,5,4,15,-60,726,367,12,0,22,-18,622,435,18,-6,22,13,510,249,18,-7,21,-70,380,153,18,-7,19,-106,265,90,16,-6,18,-6,130,-5,13,-8,17,30,28,-53,16,0,17,-45,-115,-96,14,-2,17,-12,-244,-20,3,-1,12,9,-359,-107,-1,-4,10,-93,-375,10,-6,0,6,-72,-349,-48,-14,-3,1,9,-309,-83,-17,-1,-1,38,-241,-75,-14,-1,-1,67,-138,-116,-16,1,-3,101,-96,-174,-11,0,-4,49,-87,-78,-9,1,-4,59,-50,-38,right
143,24,60,776,-2244,-490,67,7,3,344,-1349,-316,46,6,-9,265,-959,-364,28,2,-16,227,-725,-402,16,2,-17,69,-586,-405,-27,-3,-40,-183,-42,-161,-29,4,-37,-136,204,-149,-33,9,-35,-215,398,2,-34,10,-21,-205,600,284,-23,10,-10,-65,751,378,-1,10,3,0,789,340,10,2,14,-11,743,490,14,-5,26,24,617,393,23,-4,24,21,456,224,20,-8,18,-36,345,188,16,-7,21,27,201,-16,13,-8,21,24,27,42,15,-8,17,54,-70,-92,9,-11,14,30,-192,-100,6,-9,15,-14,-318,-138,2,-6,11,-36,-362,-87,-8,-3,5,-50,-346,-86,-13,-1,4,-70,-318,-117,-12,2,1,-56,-263,-32,-13,3,0,16,-181,-77,-12,3,-3,23,-129,-61,-9,1,-2,16,-88,-23,-7,0,-2,43,-52,-41,-7,0,-2,9,-16,-17,-5,0,-3,19,-19,-29,right
-4,34,-153,326,-2649,-805,-21,5,-97,-5,-916,-327,-27,6,-66,26,-303,-187,-25,6,-50,7,-34,-64,-19,3,-34,3,104,-182,-11,-3,-1,-90,757,218,1,2,13,-23,701,154,13,1,18,-29,577,198,21,0,22,-28,478,182,21,1,17,-49,389,129,21,1,19,9,294,60,18,0,15,-13,183,47,20,-2,17,-46,85,26,17,-2,17,17,-32,2,14,-4,17,25,-172,-48,8,-5,15,-36,-274,0,5,-4,15,12,-353,-40,-3,-3,9,25,-382,-92,-8,-3,4,-28,-352,-43,-9,1,2,0,-273,-68,-12,0,-1,70,-210,-124,-13,0,-4,29,-149,-51,-12,0,-7,43,-89,-61,-9,0,-5,33,-62,-33,-7,0,-3,28,-37,-22,-4,-1,-3,-4,-25,11,-1,0,-1,-11,-1,0,0,1,0,3,0,25,-1,0,0,8,5,-5,0,-1,0,0,5,-10,right
74,31,-135,715,-3096,-1348,18,15,-90,85,-1197,-549,-14,15,-67,12,-560,-292,-22,11,-52,-39,-216,-111,-20,8,-36,0,-16,-334,-29,2,-3,-128,734,316,-16,2,9,-56,692,275,3,-2,18,-29,658,310,15,-1,21,0,556,263,20,-3,20,0,447,157,18,-4,16,-63,340,149,18,-4,17,-40,239,37,16,-4,15,-68,106,48,14,-4,15,-38,-1,-79,12,-1,14,-42,-101,-38,9,-1,10,-24,-164,-73,5,-1,7,40,-172,-78,2,-1,5,67,-171,-87,1,-2,6,63,-170,-78,-1,-1,7,23,-199,1,-2,-2,10,69,-231,-38,-7,-3,6,8,-271,-9,-10,-1,5,-8,-262,-44,-12,0,0,1,-227,1,-12,-1,-4,-7,-157,-50,-11,0,-5,3,-72,-49,-8,1,-5,8,-24,-51,-6,0,-5,21,-21,-45,-3,0,-3,-4,7,-1,-3,-1,-2,19,26,-37,right
-45,21,-152,74,-1287,-614,-36,18,-81,-105,-257,-118,-25,15,-50,-24,59,46,-16,12,-33,-71,200,109,-4,12,-21,-46,281,-78,8,5,14,-31,614,287,19,2,17,8,515,243,24,-2,18,-35,412,192,26,-3,17,8,286,78,19,-9,15,-11,175,55,16,-6,9,-33,79,-29,14,-7,11,-40,3,-45,11,-3,9,-12,-70,-75,7,-4,9,6,-98,-88,4,0,7,21,-159,-69,3,-2,10,14,-162,-65,-2,0,10,37,-209,-50,-3,-2,10,50,-216,-50,-7,-1,7,16,-253,-49,-8,-1,7,36,-254,-75,-9,1,2,44,-279,-37,-9,-1,-1,31,-230,-58,-10,0,-5,26,-186,-48,-8,0,-5,31,-123,-45,-8,0,-6,-1,-75,-14,-7,-1,-6,-12,-14,-8,-4,0,-4,5,18,-32,-3,0,0,-8,16,9,-1,1,1,-6,20,25,0,-1,-1,-2,24,-7,right
136,42,86,144,-1186,6,90,16,50,176,-1092,-8,60,10,23,243,-984,-107,39,9,1,211,-839,-181,23,10,-10,181,-720,-202,-4,4,-38,172,-486,-203,-20,3,-50,86,-222,-242,-31,-1,-50,-60,97,-206,-34,-2,-36,-107,349,-79,-33,-5,-22,-167,513,17,-37,-5,-9,-239,650,173,-30,1,5,-181,694,219,-13,9,16,-112,629,265,-1,9,19,-66,542,286,10,6,17,-11,498,305,16,1,16,62,416,219,20,-5,11,27,352,201,13,-11,7,8,278,111,11,-13,6,-63,235,73,10,-6,8,-26,172,3,9,-7,10,-54,105,-21,6,-2,13,-46,5,-61,12,0,14,-55,-71,-22,9,3,9,-12,-195,-30,1,-6,8,-72,-257,-22,0,1,7,-63,-270,-21,-2,0,8,6,-230,-107,-11,1,5,57,-218,-110,-11,0,6,69,-177,-138,-8,5,0,92,-165,-114,right
129,26,87,587,-1641,-184,71,0,25,421,-1269,-188,44,0,2,119,-1052,-120,30,1,-7,166,-882,-138,21,0,-16,75,-724,-138,-8,-2,-36,-25,-371,-170,-16,2,-34,-59,-159,-79,-22,2,-32,-72,47,-99,-30,0,-28,-74,272,-83,-32,5,-23,-59,446,-1,-32,3,-20,-130,553,63,-27,3,-11,-106,684,274,-15,5,0,8,730,151,0,7,6,-71,689,247,8,3,17,-6,604,351,17,1,20,109,541,206,17,-1,18,119,400,155,19,-5,19,-14,297,179,18,-7,15,12,195,168,15,-10,13,46,134,-28,11,-11,12,-51,37,3,14,-9,16,-169,-16,41,6,-6,16,19,-121,-84,5,-4,22,38,-249,-157,7,-1,27,-7,-375,-90,0,-2,21,-9,-459,-105,-10,0,9,-67,-475,-90,-10,2,3,-96,-389,-68,-16,3,-5,-34,-222,-107,-21,3,-16,-14,-99,-103,right
139,-5,73,132,-1973,-111,71,-2,28,250,-1297,-222,39,0,-4,43,-1030,-165,25,3,-14,-2,-833,-130,13,2,-22,87,-638,-113,-21,5,-38,76,-165,-232,-28,6,-37,80,21,-160,-31,0,-28,39,201,-73,-33,0,-20,-56,369,-66,-30,3,-10,-146,468,63,-23,3,-10,-140,527,99,-16,2,-3,-249,585,245,-3,7,6,-114,608,316,6,5,9,-1,594,277,16,0,13,61,534,247,20,-3,14,32,480,235,22,-4,14,37,401,148,20,-5,11,0,312,152,19,-7,13,-20,189,66,14,-7,15,-73,55,26,9,-6,17,-87,-112,-2,9,-5,17,-50,-204,-23,2,-6,15,-1,-279,-141,-2,-1,11,17,-325,-128,-2,0,7,22,-308,-108,-2,1,4,58,-275,-140,-8,0,0,43,-265,-99,-6,1,-1,13,-234,-51,-9,0,-1,29,-181,-61,-12,-2,-3,7,-152,-32,right
-59,13,-152,470,-2000,-821,-53,10,-79,28,-609,-303,-36,8,-53,90,-144,-165,-27,6,-37,24,18,-39,-19,3,-26,-1,113,-189,-2,2,7,-116,626,232,10,1,12,-26,541,150,15,0,13,-92,446,222,17,0,12,-54,401,161,19,1,11,-19,352,88,19,-1,11,19,260,53,19,-2,12,-9,139,74,14,-2,14,-4,3,40,14,-2,15,10,-97,12,10,-3,14,-1,-189,-30,3,-2,8,-36,-242,5,2,-2,8,1,-218,-67,0,-2,9,56,-198,-79,-5,-3,5,9,-207,-108,-7,0,4,39,-202,-79,-8,-1,5,37,-190,-120,-12,-2,0,41,-197,-76,-10,-1,-5,2,-153,-23,-7,0,-3,34,-97,-82,-5,0,-5,3,-67,-5,-4,0,-2,17,-46,-25,-3,0,-2,5,-3,9,-2,0,-1,-4,3,-13,-1,1,0,5,2,16,0,0,0,0,9,15,right
89,29,-126,572,-3204,-1676,23,9,-84,-48,-1413,-784,-3,4,-69,-200,-632,-433,-7,18,-53,-123,-267,-201,-10,15,-36,105,-58,-471,-26,9,-5,-51,732,280,-10,12,11,80,732,341,9,10,23,218,626,441,14,-7,25,152,531,308,23,-7,22,-83,423,335,19,-10,19,-34,305,299,13,-13,13,-72,239,161,4,-14,12,-166,173,107,4,-10,10,-175,105,-15,3,-6,11,-116,27,-101,5,-3,10,-100,-64,-119,4,0,8,-67,-132,-183,3,3,7,8,-198,-143,2,6,7,79,-266,-161,-2,2,4,51,-286,-94,-3,2,3,64,-260,-78,-7,0,1,64,-254,-41,-7,0,-1,60,-224,-60,-9,-1,-1,54,-169,-15,-9,-2,-5,46,-117,-63,-9,-1,-5,24,-81,8,-6,-1,-5,16,-27,-4,-5,0,-3,14,-2,-26,-2,0,-1,4,11,30,-1,-1,1,-3,12,-12,right
140,38,63,437,-2167,121,72,5,14,449,-1446,-89,40,0,-8,282,-1062,-175,27,2,-10,322,-792,-305,20,3,-13,271,-560,-316,-14,-1,-28,27,-80,-435,-23,5,-28,-145,110,-306,-27,11,-23,-306,255,-153,-29,13,-23,-345,397,-79,-33,11,-16,-303,482,305,-22,7,-8,-123,589,307,-8,6,3,3,647,530,5,-1,12,163,648,378,11,-6,17,82,568,434,22,-5,17,-8,462,296,16,-7,16,-11,349,196,12,-7,9,-41,278,131,10,-8,9,-36,224,96,10,-8,7,-34,140,-23,8,-8,7,1,49,-59,11,-7,8,-12,-46,-126,5,-7,10,-33,-174,-65,4,-3,16,-41,-280,-132,0,1,12,22,-324,-151,-5,3,11,-7,-334,-148,-6,3,6,44,-322,-83,-5,3,2,32,-264,-81,-10,2,-7,44,-210,-127,-9,0,-5,15,-155,-8,-9,-1,-5,39,-115,-23,right
-40,24,-153,368,-1603,-1163,-33,17,-80,62,-562,-411,-29,14,-50,-13,-170,-143,-22,11,-34,6,35,-27,-11,8,-23,26,142,-269,0,1,10,-26,546,293,8,-1,12,-28,526,301,14,-4,14,-12,454,263,16,-6,12,-21,358,205,11,-6,11,-58,285,118,8,-5,8,-70,220,83,11,-3,10,-31,154,53,9,-4,9,-23,86,-24,7,-3,12,-19,35,-66,7,0,11,-2,-63,-79,8,0,14,-11,-131,-94,4,0,10,4,-184,-53,3,-1,6,16,-249,-66,2,0,6,8,-274,-51,-3,-3,4,9,-282,-19,-7,-2,2,9,-264,-42,-12,-3,0,26,-244,-19,-12,-1,0,11,-179,-56,-12,-2,-3,16,-143,-57,-8,0,-4,6,-74,-58,-7,1,-4,23,-38,-84,-4,1,-1,0,-23,-9,-3,2,-4,10,1,-46,-1,3,-1,9,6,9,0,1,0,33,4,-14,right
-56,6,-147,49,-1289,-786,-30,6,-72,-90,-349,-209,-19,7,-45,-60,-17,-47,-13,7,-30,-74,135,25,-6,7,-21,-35,202,-182,8,5,11,-37,536,266,12,3,11,23,472,214,15,1,13,-9,377,217,15,-2,12,43,310,107,14,-4,10,34,223,99,11,-5,10,-10,145,48,9,-6,10,-36,62,68,7,-7,12,1,-15,-71,7,-4,12,-28,-105,-83,3,-5,10,-57,-158,-28,4,-2,9,-21,-217,-106,3,0,10,-3,-246,-58,0,0,5,-3,-260,-89,-4,0,3,4,-265,-35,-5,1,2,10,-251,-65,-10,0,0,23,-196,-24,-11,0,-1,32,-137,-31,-11,0,-2,30,-88,-55,-9,1,-3,13,-50,-34,-7,0,-3,44,-6,-21,-4,0,-2,23,1,-32,-1,0,-1,17,-7,-12,0,-1,-2,9,4,4,0,0,-1,16,13,-11,1,0,0,-1,-9,2,right
-6,2,-157,-51,-2231,-1251,-17,11,-90,-171,-822,-411,-21,7,-65,-111,-300,-115,-21,4,-39,-18,1,-15,-12,5,-25,-13,127,-300,-4,6,12,-16,657,323,5,2,18,31,596,327,12,0,24,17,491,246,18,-2,18,-20,362,150,12,-4,13,-42,255,104,10,-5,10,-51,194,36,9,-4,10,-5,135,46,9,-3,9,-19,65,-94,11,0,9,-8,-3,-57,12,0,8,14,-61,-45,8,0,7,28,-128,-91,4,-3,6,-14,-159,-8,3,-1,6,46,-176,-95,-3,-2,5,-12,-211,-6,-2,-2,7,19,-216,-54,-6,-1,4,16,-210,-29,-5,1,3,32,-203,-72,-6,1,2,14,-186,-7,-5,0,0,53,-149,-58,-6,1,-4,23,-113,-40,-4,0,-3,36,-75,-2,-5,-1,-4,22,-57,-26,-3,-2,-4,1,-15,5,-2,-2,-3,-9,3,-4,0,0,0,-13,2,18,right
151,-9,37,284,-2115,-99,76,7,22,156,-1344,-147,46,9,4,265,-1067,-233,29,8,-8,175,-875,-225,21,9,-16,206,-769,-224,-16,7,-41,-18,-229,-153,-24,4,-42,31,68,-223,-25,1,-41,-45,311,-51,-28,-3,-28,-106,487,-38,-35,-4,-15,-238,673,252,-28,3,4,-97,672,179,-19,3,7,-127,607,239,-9,3,14,-141,567,318,0,4,13,-68,543,291,12,1,10,22,507,216,16,-4,9,45,426,140,20,-9,7,8,356,67,18,-11,8,-12,281,45,19,-11,8,21,194,-95,21,-6,10,-50,81,-83,19,-1,18,-20,-53,-71,11,1,18,-11,-161,-41,4,2,17,25,-245,-70,1,5,20,93,-265,-65,-9,0,14,140,-298,6,-8,-4,9,56,-248,-22,-11,-3,5,28,-256,-6,-7,-5,4,16,-226,-93,-10,-4,-3,-83,-228,-32,-6,0,0,-89,-183,-10,right
3,56,-153,520,-2926,-1177,-19,21,-92,91,-1155,-447,-23,8,-65,92,-484,-269,-23,5,-47,70,-170,-129,-22,2,-35,6,-17,-333,-19,-5,0,-128,672,281,-6,-1,9,-64,649,175,4,1,15,-74,576,217,11,3,17,-76,493,207,18,3,16,-5,432,161,17,0,11,20,357,103,17,-1,12,32,253,73,15,-2,9,4,146,74,14,-4,9,25,50,35,14,-3,11,30,-9,-14,9,-5,11,35,-80,-31,7,-6,12,60,-120,-53,3,-5,11,45,-172,-26,2,-7,12,30,-228,-65,-3,-5,7,-68,-289,-22,-1,-2,11,-46,-289,-48,-7,1,5,-83,-294,-14,-8,0,5,-57,-274,-34,-12,3,0,-44,-195,-25,-11,1,-1,34,-124,-118,-12,2,-6,18,-85,-49,-8,0,-5,32,-37,-37,-7,1,-5,33,-1,-44,-3,0,-5,17,7,-27,-1,1,-3,20,3,-7,right
142,13,70,663,-1769,-273,80,4,14,87,-1237,-113,53,9,5,197,-980,-152,33,5,-10,216,-814,-201,20,5,-18,91,-654,-263,-11,4,-39,-31,-289,-95,-22,4,-43,-3,-86,-119,-34,-7,-45,-277,141,-41,-37,-2,-29,-104,370,-24,-37,-4,-21,-7,518,49,-34,-1,-10,-152,638,92,-21,5,9,-36,687,330,-4,13,17,150,644,94,7,8,15,-49,575,166,17,5,17,-85,502,312,22,2,15,75,429,160,17,-8,10,22,356,202,16,-10,10,-5,272,30,13,-10,10,-56,158,131,12,-8,14,-78,85,-20,7,-6,14,-96,-6,-28,5,-3,14,-105,-77,-70,6,0,18,-24,-161,-44,1,3,13,-6,-183,-101,0,0,11,25,-259,-97,-1,1,12,57,-281,-60,-3,0,8,56,-313,-84,-9,-1,1,27,-268,-88,-8,-3,0,38,-262,-41,-10,0,-3,42,-202,-85,right
-43,-19,-153,272,-1616,15,-42,0,-84,151,-445,-51,-38,-4,-66,107,-5,-61,-26,-3,-39,-39,218,2,-18,2,-32,11,342,4,1,5,10,-87,792,6,15,4,18,-62,734,-28,25,0,29,-86,522,100,43,6,41,48,310,-83,34,1,40,75,45,16,19,-4,26,64,-235,-34,13,-5,27,-1,-455,8,3,2,17,28,-473,14,-18,-3,-4,-27,-476,-64,-15,-1,-4,-62,-376,63,-12,2,-3,-34,-240,40,-12,2,-9,31,-101,3,-7,-1,-6,-1,-58,-17,-4,1,-3,31,-20,3,-1,-1,-2,-20,-13,37,0,1,-1,16,0,-6,-1,0,-1,-30,-8,-8,0,2,1,8,4,18,0,-1,0,-18,4,21,1,0,0,10,6,-29,1,0,0,-7,6,-1,1,0,0,13,-1,-11,0,0,0,-3,7,2,-1,0,-1,8,5,-21,0,0,0,-2,4,-4,right
125,-8,92,-60,-1447,136,60,0,32,-102,-1219,100,38,0,3,43,-1074,52,13,-2,-23,-65,-847,51,-1,0,-24,-56,-552,70,-36,1,-52,86,-67,-1,-41,-3,-55,62,334,-49,-45,-5,-46,14,685,-56,-31,-4,-15,36,880,8,-9,-1,-2,12,899,-138,7,0,15,-135,785,-5,24,3,37,-50,580,-93,27,9,34,-60,423,-30,34,5,34,-21,157,-31,29,4,33,104,-11,-8,12,1,16,118,-198,-12,2,0,10,27,-299,27,7,-4,18,28,-404,144,-9,0,2,33,-331,0,-15,-4,-5,-52,-327,17,-8,0,2,-61,-232,71,-8,0,-7,-3,-136,-8,-11,1,-9,-6,-62,-3,-4,2,-5,0,-33,-47,-2,2,-2,-11,-14,23,0,-1,-1,-1,0,10,0,0,0,2,2,12,0,0,0,-8,0,-10,0,0,1,0,0,0,1,0,0,3,1,3,right
100,13,121,-27,-681,166,72,10,64,58,-959,127,45,8,23,-32,-1051,177,28,5,-4,-9,-966,209,7,0,-23,102,-702,123,-24,-9,-63,164,-353,-42,-49,-13,-72,17,119,-22,-63,-16,-67,41,595,22,-52,-14,-36,-42,968,-140,-28,-8,-12,-218,1094,-231,-8,3,17,-305,991,-49,21,12,37,-161,794,-119,37,17,46,-55,590,-82,35,9,39,2,213,-95,38,12,47,125,-87,-16,19,4,29,146,-315,54,5,-2,18,135,-432,-60,0,-4,10,39,-510,121,-4,0,4,78,-385,57,-20,-5,-11,-7,-301,34,-10,-2,-7,7,-197,28,-10,-1,-8,-19,-109,32,-4,-2,-3,-1,-50,16,-4,1,-4,-36,-36,22,0,0,0,-3,-3,-3,0,1,0,-10,8,26,1,0,-1,0,3,-3,0,0,1,-7,0,15,0,-1,-1,-1,19,4,0,0,0,-2,1,-8,right
-11,-2,-168,818,-2067,-63,-32,-14,-108,303,-411,-24,-44,-15,-71,-6,4,15,-28,-10,-40,-5,185,-21,-14,-4,-29,-84,305,-50,-2,0,14,-237,851,-49,11,6,27,-183,663,7,35,10,38,-48,519,-73,28,6,22,-52,345,-65,27,4,33,117,81,-42,19,1,27,104,-180,18,12,0,21,66,-343,45,2,-2,10,58,-428,12,0,3,10,57,-439,33,-6,-1,-1,-24,-362,71,-11,-1,-6,-31,-254,43,-7,-1,-5,-2,-160,1,-9,1,-6,-7,-105,4,-5,-1,-2,0,-65,19,-3,1,-3,-3,-33,10,-1,0,-1,1,-20,-13,-1,0,-1,2,-7,38,1,0,-1,5,3,-10,0,0,-1,-7,5,0,-1,0,0,-3,3,-1,0,0,0,1,10,-5,0,0,0,-5,7,10,-1,0,0,-2,1,3,1,0,1,1,-3,-18,0,-1,0,-6,-5,29,right
122,7,121,-82,-902,217,73,22,55,79,-1138,196,49,4,23,117,-1146,99,24,0,-8,4,-981,105,-2,2,-26,-33,-654,112,-37,-8,-62,29,-208,74,-49,-16,-68,-78,310,-71,-54,-15,-58,-1,725,-66,-42,-11,-32,-34,997,-58,-13,-8,-1,-43,1057,-200,7,5,19,-124,903,-108,18,6,33,-41,729,-219,29,14,37,-56,481,-119,29,17,37,102,185,-76,22,7,30,116,-127,50,15,3,25,141,-316,56,8,0,16,94,-470,86,2,-3,12,8,-453,109,-2,-6,2,-64,-365,105,-3,1,-2,-33,-263,56,-9,-2,-7,-13,-192,22,-6,1,-3,-7,-103,-18,-7,0,-7,-13,-66,-9,-4,1,-2,-19,-35,24,-4,0,0,3,-11,14,-2,0,0,-16,-8,32,-1,0,0,10,-2,-2,-1,0,0,-3,-1,16,0,-1,1,21,9,8,0,-1,0,2,2,0,right
-18,-20,-166,336,-1751,164,-38,-15,-107,183,-403,2,-41,-19,-67,17,2,-2,-33,-12,-40,-60,194,-21,-15,-5,-27,-82,324,0,-4,4,15,-173,788,-138,14,10,34,-116,626,-78,26,15,35,-23,392,-23,35,15,32,67,258,-83,20,3,27,90,-13,42,19,0,26,129,-244,18,7,-3,15,55,-385,127,3,-4,11,0,-364,-4,-4,-3,3,-16,-410,59,-5,2,-1,-27,-324,35,-15,0,-10,-30,-195,14,-10,0,-8,-3,-74,-7,-7,0,-8,3,-24,14,-5,-1,-5,-14,6,43,-1,0,0,13,32,2,1,0,1,-2,15,2,1,0,1,-8,6,26,1,0,1,7,8,-12,0,0,1,5,1,0,0,0,0,-5,-16,-24,0,0,0,0,-1,19,0,0,-1,-7,-3,5,-1,0,1,-4,-10,-23,-1,0,0,0,-5,20,0,0,1,7,-8,0,right
122,20,104,13,-984,108,66,12,45,-34,-1113,183,43,11,10,45,-1079,182,16,0,-16,83,-878,132,-10,-1,-30,25,-500,52,-38,-10,-55,13,-70,59,-51,-14,-57,79,371,8,-53,-21,-44,18,735,-86,-32,-15,-16,-114,953,-147,-4,-8,8,-114,888,-184,8,1,19,-125,725,-174,23,12,27,-118,539,-183,35,17,36,-64,350,-91,29,19,26,60,176,-132,26,9,26,132,-57,22,20,5,19,139,-175,39,13,-3,17,46,-264,95,3,-2,8,23,-318,93,0,-3,10,-29,-368,104,-4,0,1,-43,-306,94,-9,0,0,-26,-266,37,-6,0,-3,11,-198,44,-7,-1,-5,4,-114,38,-6,-1,-6,24,-62,-13,-3,-1,-4,-1,-28,0,-2,-1,-3,-1,-13,-2,-1,-1,0,-10,3,-14,0,0,0,-13,-3,7,0,2,1,-9,13,-1,-1,1,0,-4,9,0,right
-46,-15,-153,416,-1392,-203,-63,-8,-94,-37,-397,-26,-40,0,-61,-27,60,-1,-16,-2,-36,-11,291,-2,-12,-2,-28,-65,392,-66,2,2,11,-161,788,48,30,8,30,32,725,-12,29,0,29,48,505,-36,30,0,34,38,194,6,29,2,38,97,-66,-19,20,0,30,110,-301,-36,7,-6,17,-18,-462,24,3,-1,16,-48,-496,52,-11,2,0,-32,-400,9,-14,-1,-6,-33,-313,-9,-13,0,-9,-30,-202,41,-12,0,-7,8,-98,11,-8,0,-8,19,-43,-19,-4,-1,-2,10,-31,1,-2,0,-2,3,-12,-4,0,0,0,-2,-11,-9,0,1,0,1,-5,13,0,1,1,0,12,-6,0,0,-1,-8,15,-3,0,0,1,0,4,8,1,0,1,-3,5,-4,0,0,0,-7,2,-4,0,0,0,-3,-18,0,0,0,0,2,-12,7,-1,0,-1,2,-1,-13,right
-5,-23,-160,968,-1651,161,-45,-19,-109,378,-420,-3,-54,-22,-67,19,-16,-18,-30,-11,-40,-69,236,-36,-15,-4,-30,-100,365,5,-7,2,14,-294,800,-139,17,10,29,-223,690,-89,40,15,39,5,488,-86,29,11,26,37,220,-71,35,6,38,150,-18,-2,23,5,22,152,-235,67,15,-5,22,72,-400,92,3,-3,8,-36,-426,104,2,-2,8,10,-392,81,-15,-2,-7,-55,-340,71,-13,-1,-6,-60,-236,50,-13,2,-10,7,-117,-5,-10,1,-9,25,-50,-14,-5,0,-3,4,-12,0,-2,1,-2,1,-3,18,0,-1,0,3,9,5,0,-1,2,-8,-2,-4,1,0,1,-7,-1,-19,0,0,0,-4,-8,0,-1,0,0,2,-8,-15,0,0,0,0,-9,-9,0,0,0,-2,-4,-10,0,0,-1,-2,-4,5,0,0,0,-5,1,-7,0,0,0,-3,2,8,right
117,15,101,-208,-1345,280,75,12,51,31,-1172,165,50,2,18,130,-1122,79,21,0,-14,-24,-945,111,0,2,-35,-65,-632,146,-41,-11,-71,14,-95,34,-58,-18,-72,37,413,-97,-56,-18,-57,-92,868,-23,-36,-11,-25,-46,1122,-108,-9,-7,12,-45,1131,-212,20,14,39,26,914,-193,33,18,47,36,569,-104,40,21,52,84,203,-68,31,14,43,107,-53,37,21,4,30,148,-287,38,5,-7,14,7,-400,94,0,-5,10,-65,-431,135,-11,-6,-1,-58,-346,61,-10,-4,-4,-34,-289,10,-10,-1,-5,-37,-203,-1,-7,0,-3,-2,-153,27,-5,1,-6,-29,-89,-1,-2,2,-4,-5,-54,4,-3,0,-2,-14,-29,14,-3,0,-3,-4,-16,26,-1,0,0,-10,6,5,0,-1,0,9,18,-6,0,0,0,-18,5,-8,0,2,0,0,15,7,1,0,1,10,14,-19,right
118,27,98,-202,-2186,429,56,16,35,64,-1483,277,25,7,-9,175,-1142,145,5,-1,-30,93,-768,87,-7,-2,-35,124,-408,62,-45,-14,-61,98,249,-45,-53,-14,-58,-63,614,-115,-39,-11,-30,-153,910,-51,-18,-3,-2,-183,1008,-143,-2,5,13,-228,967,-81,30,13,40,-49,747,-21,35,17,38,85,574,-80,37,5,41,82,248,30,31,6,37,168,-64,-22,26,-3,36,118,-352,89,6,-7,11,-19,-464,27,5,-11,16,-68,-547,79,-6,0,1,-42,-462,36,-13,-2,-5,-66,-328,19,-14,0,-9,-30,-215,9,-11,2,-6,14,-111,-29,-12,1,-8,12,-63,8,-6,0,-4,1,-25,11,-3,0,-4,-1,-9,10,0,0,0,7,0,7,-2,0,0,-10,10,-15,2,0,1,-1,5,0,0,0,0,6,13,2,0,0,1,4,5,-6,0,0,-1,0,2,-10,right
-63,-13,-145,316,-2005,30,-50,-10,-89,102,-522,-58,-34,-5,-59,6,-57,0,-30,-7,-42,-7,179,-3,-19,-5,-27,-51,284,19,1,0,8,-119,791,-99,15,7,22,-72,659,-8,17,4,24,-44,465,-35,32,10,33,20,298,-41,27,7,26,63,82,-24,23,3,25,75,-127,-4,15,0,16,43,-269,69,14,0,15,46,-324,18,0,-4,3,-5,-370,70,-3,-2,3,-8,-314,16,-10,0,-4,-7,-230,13,-10,-1,-3,-5,-166,23,-10,0,-6,-2,-104,3,-8,0,-3,-5,-68,0,-4,0,-3,10,-43,4,-2,0,-1,2,-26,6,0,0,-1,5,-10,-8,0,0,0,4,3,0,0,0,0,0,0,8,-1,0,0,-10,-4,0,0,0,-1,-14,5,-1,0,0,0,-8,11,6,0,-1,1,-7,9,28,0,0,1,-8,1,-28,0,0,0,-8,-2,-5,right
120,22,96,-63,-1735,280,64,6,47,-9,-1366,183,40,2,7,155,-1139,58,14,-1,-20,82,-843,17,0,2,-25,105,-466,10,-34,-7,-56,290,88,-159,-55,-5,-63,71,469,-175,-55,0,-43,-171,824,-2,-26,3,-14,-153,1001,117,-6,-1,4,-256,923,-115,12,8,26,-342,790,140,34,3,38,-117,553,157,51,3,49,75,249,12,27,2,35,78,0,39,14,-2,24,142,-226,-129,7,-3,17,103,-352,11,-1,0,5,83,-362,10,-15,-6,-6,14,-329,-11,-11,-5,-3,26,-276,-4,-8,-1,-3,22,-194,-13,-9,-2,-7,-29,-159,-7,-4,0,0,-36,-111,-1,-4,2,-3,-4,-51,-25,-2,2,-2,-12,-56,-5,0,2,0,-9,-48,19,-1,0,0,7,-21,22,0,0,0,12,-7,7,-1,0,-1,4,-19,0,0,0,0,6,11,24,0,0,0,6,20,-6,right
-4,15,-155,612,-2223,-47,-31,-11,-104,300,-718,-63,-43,-15,-81,18,-159,10,-23,-10,-47,-16,133,-2,-11,-8,-27,-66,251,-13,-4,-4,8,-196,789,-89,19,4,37,-130,681,-8,21,15,30,-88,548,-60,28,9,34,-2,366,-31,15,16,16,85,256,-34,16,2,23,139,67,16,9,8,13,138,-49,69,16,-6,21,131,-178,95,7,-7,14,17,-312,48,11,-10,20,-21,-390,70,-1,-1,4,-79,-371,-20,-9,-9,-3,-148,-356,13,-8,1,0,-91,-299,25,-12,7,-7,-1,-187,-66,-13,2,-9,-7,-143,-15,-6,1,-4,14,-63,7,-4,0,-5,18,-4,34,0,0,-3,37,12,-23,-2,-1,-3,-2,20,8,0,-1,0,7,16,12,0,-1,0,-1,13,6,0,0,1,-8,14,13,0,0,0,-1,8,-14,0,0,0,5,7,0,0,0,1,1,6,-1,right
-57,6,-148,-17,-1254,-98,-38,-2,-88,86,-292,-69,-31,-3,-61,47,114,-30,-21,-2,-41,-3,293,-6,-8,1,-21,-10,378,4,3,5,8,7,745,22,21,4,27,39,663,55,27,6,28,32,519,52,30,-4,32,31,245,94,23,-1,25,34,49,32,24,-10,33,-31,-194,20,7,-3,18,-64,-381,-31,1,-5,17,-63,-518,18,-5,5,7,-52,-449,-74,-12,0,1,-29,-419,-42,-15,2,-9,15,-301,-60,-14,0,-7,-19,-181,-17,-11,1,-7,0,-79,-4,-8,1,-5,18,-38,-4,-2,0,-3,-1,-25,-22,-2,1,-2,7,-20,27,0,-1,0,6,3,-11,0,0,-1,-3,-1,0,0,0,0,0,3,-6,0,0,0,2,8,3,0,0,0,-4,3,5,-1,0,0,1,4,-1,0,0,0,3,3,-10,1,0,0,3,-2,9,0,0,0,-2,7,-9,right
-18,9,-158,-79,-2180,-25,-27,0,-88,169,-596,-89,-28,-2,-65,99,-139,-32,-26,-3,-44,-5,53,-19,-17,-2,-27,5,184,-2,-7,0,2,6,783,-84,8,2,16,-38,687,13,20,6,25,-15,603,18,29,7,26,36,502,29,29,1,24,22,269,42,33,2,36,70,79,58,16,-1,18,21,-102,42,12,-9,22,3,-306,42,4,-6,16,-17,-418,38,-1,-1,11,-25,-387,-34,-16,-3,-2,-76,-390,-34,-9,0,3,-59,-347,-26,-14,4,-7,-43,-218,-22,-11,2,-6,-14,-137,-15,-9,2,-9,3,-80,-22,-5,0,-4,17,-50,8,-2,0,-3,6,-15,0,0,0,-1,0,-1,3,0,0,0,3,-1,9,0,0,0,-8,1,2,0,0,0,0,6,2,0,0,0,9,5,-2,0,0,0,-2,5,0,0,0,0,-1,5,0,0,0,0,12,8,-4,right
-53,2,-148,667,-1309,-296,-41,-1,-98,187,-221,-115,-34,-5,-58,-69,159,-15,-24,0,-31,-58,279,-6,-9,5,-16,-27,347,-82,3,5,13,-132,705,41,23,1,39,-9,536,90,23,7,29,48,306,59,24,0,26,50,142,25,20,-4,20,13,-50,61,18,-3,22,3,-199,13,0,-1,2,-53,-269,42,5,-7,11,-11,-283,-26,0,0,1,-20,-282,-20,-7,-1,0,5,-243,-33,-10,-1,-3,-8,-208,-45,-6,1,-1,-28,-161,-39,-9,4,-5,0,-111,-5,-5,1,-1,16,-75,-7,-4,1,-4,0,-55,-5,-1,0,-2,0,-33,13,-1,-1,-1,11,-15,-4,1,0,0,-5,-8,13,0,0,0,-8,0,-16,0,0,0,7,4,2,0,0,0,-5,-5,-14,0,0,0,2,-1,-3,-1,0,0,0,-2,-4,0,0,0,2,-8,15,-1,0,0,-1,-4,-9,right
-25,5,-159,438,-1179,-246,-42,-3,-95,180,-143,-70,-45,-5,-58,-6,151,-19,-20,1,-39,-37,336,-3,-7,2,-24,0,433,-78,4,2,15,-66,726,59,19,3,29,-52,535,65,38,3,38,55,340,49,26,-1,34,65,94,-2,21,-2,30,-4,-124,1,12,-3,22,-22,-297,37,8,-1,15,-31,-333,-11,-4,1,0,-50,-337,-24,-3,-1,1,-33,-301,-30,-11,0,-3,2,-281,0,-10,0,-4,-11,-182,-1,-9,0,-5,5,-140,-9,-6,-1,-3,4,-80,-3,-5,1,-4,-1,-53,-8,0,0,-2,1,-21,7,-1,0,-1,12,0,3,-1,0,-1,4,5,-31,0,0,0,-7,-6,24,0,0,0,-7,1,-33,0,0,0,-4,5,15,0,0,0,-4,-5,-10,0,0,0,-5,-3,26,0,0,0,1,-9,-18,0,0,0,5,-7,19,0,0,0,0,-6,1,right
-31,-9,-158,-409,-1891,17,-40,-8,-117,-140,-499,36,-35,-10,-75,222,42,-100,-30,-9,-45,45,234,-39,-17,-1,-28,-22,333,-50,-2,3,11,117,789,35,17,6,34,118,655,-143,28,6,42,-54,395,95,28,9,27,-2,265,25,24,0,22,46,71,6,22,-6,26,19,-109,49,11,-4,21,-27,-233,41,2,-1,11,-85,-293,22,5,-1,17,-51,-389,-48,-2,3,8,-50,-366,31,-12,4,-3,-43,-292,-16,-11,0,-8,-31,-229,0,-9,1,-7,10,-130,-26,-8,0,-8,28,-64,34,-4,-2,-3,32,-56,-33,-1,-1,-3,-13,-26,29,0,0,-1,-1,-3,-9,0,0,0,-3,-5,5,-1,0,0,-14,-7,-8,0,0,1,-2,8,2,0,0,0,4,9,10,0,0,0,-4,12,-20,0,0,0,2,9,4,0,0,-1,4,4,-5,0,0,0,1,13,-4,right
-63,12,-151,-658,-2276,207,-35,-2,-86,-183,-585,57,-38,-5,-71,129,-61,-13,-31,-8,-45,53,146,5,-20,-4,-30,-11,247,41,1,-4,8,114,814,-63,8,5,15,72,699,-112,23,1,30,-33,505,6,36,11,37,54,356,-47,29,6,27,50,176,-4,23,0,27,62,-66,19,16,-4,28,17,-259,86,9,2,18,-30,-346,34,-3,-6,5,-96,-417,41,-5,-2,5,-51,-402,37,-11,0,-4,-48,-285,8,-11,0,-9,-20,-204,-16,-8,0,-6,-6,-123,-20,-8,0,-6,-8,-64,-12,-4,0,-2,8,-35,-10,-2,0,-2,4,-19,11,0,1,0,4,-3,4,0,0,0,-5,-3,-1,0,0,0,11,7,-8,0,0,1,1,4,3,0,0,0,-6,3,-4,0,0,0,-3,1,8,-1,0,0,-7,2,-30,0,0,0,-2,2,9,0,0,0,-2,6,11,right