AccX1,AccY1,AccZ1,GyrX1,GyrY1,GyrZ1,AccX2,AccY2,AccZ2,GyrX2,GyrY2,GyrZ2,AccX3,AccY3,AccZ3,GyrX3,GyrY3,GyrZ3,AccX4,AccY4,AccZ4,GyrX4,GyrY4,GyrZ4,AccX5,AccY5,AccZ5,GyrX5,GyrY5,GyrZ5,AccX6,AccY6,AccZ6,GyrX6,GyrY6,GyrZ6,AccX7,AccY7,AccZ7,GyrX7,GyrY7,GyrZ7,AccX8,AccY8,AccZ8,GyrX8,GyrY8,GyrZ8,AccX9,AccY9,AccZ9,GyrX9,GyrY9,GyrZ9,AccX10,AccY10,AccZ10,GyrX10,GyrY10,GyrZ10,AccX11,AccY11,AccZ11,GyrX11,GyrY11,GyrZ11,AccX12,AccY12,AccZ12,GyrX12,GyrY12,GyrZ12,AccX13,AccY13,AccZ13,GyrX13,GyrY13,GyrZ13,AccX14,AccY14,AccZ14,GyrX14,GyrY14,GyrZ14,AccX15,AccY15,AccZ15,GyrX15,GyrY15,GyrZ15,AccX16,AccY16,AccZ16,GyrX16,GyrY16,GyrZ16,AccX17,AccY17,AccZ17,GyrX17,GyrY17,GyrZ17,AccX18,AccY18,AccZ18,GyrX18,GyrY18,GyrZ18,AccX19,AccY19,AccZ19,GyrX19,GyrY19,GyrZ19,AccX20,AccY20,AccZ20,GyrX20,GyrY20,GyrZ20,AccX21,AccY21,AccZ21,GyrX21,GyrY21,GyrZ21,AccX22,AccY22,AccZ22,GyrX22,GyrY22,GyrZ22,AccX23,AccY23,AccZ23,GyrX23,GyrY23,GyrZ23,AccX24,AccY24,AccZ24,GyrX24,GyrY24,GyrZ24,AccX25,AccY25,AccZ25,GyrX25,GyrY25,GyrZ25,AccX26,AccY26,AccZ26,GyrX26,GyrY26,GyrZ26,AccX27,AccY27,AccZ27,GyrX27,GyrY27,GyrZ27,AccX28,AccY28,AccZ28,GyrX28,GyrY28,GyrZ28,AccX29,AccY29,AccZ29,GyrX29,GyrY29,GyrZ29,AccX30,AccY30,AccZ30,GyrX30,GyrY30,GyrZ30,Label
12,-152,70,3558,484,-379,23,-76,67,1201,274,73,15,-71,45,936,291,33,18,-60,33,454,171,13,20,-53,29,119,51,-179,19,-24,14,-845,-147,200,10,-19,0,-875,-250,30,2,2,-3,-1088,-334,94,-6,16,0,-998,-312,151,-21,32,-14,-919,-176,210,-20,59,-13,-556,-67,201,-21,47,-13,136,86,53,-15,44,-11,394,120,-50,-14,27,-21,610,159,-31,-2,22,-8,771,74,-163,-7,-9,-11,654,89,-252,-2,3,-10,205,25,-113,0,-6,-10,127,31,-89,0,4,-3,25,9,-59,-2,-2,-4,0,48,-8,1,6,0,62,12,-33,-1,0,0,22,25,-18,0,4,2,39,0,-19,0,-1,0,-30,0,46,2,2,2,87,-9,-64,0,-5,-3,-46,9,60,1,0,1,47,-8,-36,0,-4,-1,-61,1,66,0,0,0,41,-3,-73,-1,-1,-1,-80,6,74,tilt left
43,-141,104,-1585,-239,514,19,-43,45,-1100,-84,360,12,-14,35,-331,-26,127,5,-17,11,-478,-31,153,3,2,14,-246,-18,148,-8,20,-14,87,46,96,-8,18,-19,84,28,-136,-7,10,-20,40,7,63,-7,13,-17,142,16,-92,-5,3,-21,162,8,-86,-3,11,-16,208,-6,8,-2,3,-9,364,2,-209,-3,0,-11,168,8,-11,0,4,-3,259,9,-94,-1,-2,-5,99,11,-59,0,1,0,45,7,-16,0,0,0,24,-1,4,0,0,0,7,-6,15,0,0,0,7,-3,3,0,0,0,0,-5,8,0,0,0,-5,1,16,1,0,0,-12,3,9,1,0,0,7,8,3,0,0,0,-7,4,10,0,0,1,8,0,-9,0,0,1,-4,-7,11,-1,-1,0,-6,-1,-4,0,0,0,-5,-3,-5,0,0,0,-2,-8,-5,0,0,0,-4,-2,-8,tilt left
17,-94,133,3939,499,-766,19,-85,61,1593,410,-103,25,-74,63,708,280,86,25,-65,50,304,146,49,19,-56,39,-8,37,-252,21,-32,13,-1011,-174,182,7,-8,12,-1050,-266,224,-1,5,-2,-1005,-294,89,-11,29,-12,-897,-211,102,-9,42,-11,-505,-110,55,-22,41,-25,-323,37,154,-11,43,-19,-62,53,61,-12,41,-25,286,90,9,-5,26,-17,561,71,-192,-12,12,-27,396,55,-84,-2,11,-12,410,24,-61,-6,0,-19,345,34,-104,-2,0,-13,229,19,-121,-4,-2,-14,91,19,-30,0,1,-6,118,19,4,-1,0,-7,140,16,-34,1,0,-2,129,18,-34,0,-1,0,39,20,-34,0,1,0,7,3,4,0,0,0,-6,-1,11,0,0,0,10,2,0,0,-1,0,-3,-1,14,-1,0,-1,20,0,-31,0,-1,0,-1,10,32,0,0,0,5,10,-19,tilt left
19,-74,135,2988,59,-891,19,-73,70,1010,177,-230,25,-49,62,280,96,4,20,-41,53,131,55,9,16,-34,41,-4,18,-255,13,-16,14,-659,-29,182,7,-2,12,-572,-115,234,-3,0,-3,-598,-107,128,-3,19,-7,-422,-58,90,-5,17,-13,-369,-33,73,-9,23,-15,-223,19,52,-9,18,-23,-382,54,256,-8,29,-20,-62,41,-27,-6,22,-23,243,0,-25,-9,14,-22,303,4,-205,-6,8,-20,213,-14,91,-4,13,-11,567,-24,-139,-2,-1,-9,484,0,-257,-4,-9,-8,80,4,-40,0,2,-1,63,3,2,0,0,-1,81,5,-81,0,-1,0,-24,5,16,0,0,0,8,-5,-28,0,0,0,-21,0,16,0,0,0,-3,-6,-12,0,0,-1,-10,0,22,0,1,0,1,2,5,0,0,0,-1,7,0,1,0,0,19,5,22,0,0,1,8,8,-12,tilt left
8,-141,102,3050,282,-783,33,-81,77,277,82,16,19,-52,56,87,44,1,17,-38,49,-53,9,5,13,-29,37,-79,-20,-298,9,-1,14,-788,-95,382,-6,3,-1,-559,-52,122,-1,22,-4,-493,-38,104,-7,19,-21,-276,15,70,-8,22,-23,-323,31,46,-7,29,-20,-151,42,140,-5,29,-22,194,23,-42,-8,11,-26,283,16,-108,-7,10,-17,220,-25,-20,-6,8,-14,326,-13,-88,-5,0,-16,253,-3,-59,-3,2,-7,227,-9,-89,-3,-1,-6,166,-14,-74,-1,0,-2,100,-2,-50,-1,-1,-3,87,-2,-31,0,0,0,72,-4,-22,1,-1,-2,33,4,-34,1,0,0,-12,7,19,1,0,0,2,3,-5,1,1,1,-5,11,13,1,0,0,12,6,-3,-1,0,0,-3,5,19,0,0,0,1,1,-8,0,0,0,1,2,6,0,0,0,0,-6,20,tilt left
81,-205,203,27,205,42,49,-95,101,-92,-7,-4,29,-63,64,-346,-65,60,14,-49,38,-706,-67,174,9,-22,26,-794,-22,223,-5,41,-17,-593,-50,101,-11,38,-21,-291,-7,23,-12,35,-26,-19,29,60,-6,39,-21,391,39,14,-5,22,-19,672,17,-148,-7,0,-18,534,0,-190,-5,0,-14,325,11,-104,-3,1,-7,221,10,-71,-2,-1,-5,168,12,-32,-1,-1,-2,123,6,-44,0,-1,-1,43,8,-32,0,0,0,-1,-8,-1,0,0,0,-9,-7,2,0,0,1,-3,2,-7,0,1,0,-9,-2,-1,0,0,0,4,2,4,0,0,0,-6,7,8,0,0,0,1,7,3,0,-1,-1,0,0,11,0,0,0,4,-1,-15,0,0,0,-9,-4,12,0,0,0,0,-3,-13,0,0,0,1,5,-5,0,1,0,-2,0,-14,0,0,-1,-8,0,-8,tilt left
1,-165,65,4040,501,-997,39,-92,73,352,109,101,19,-66,58,118,43,7,19,-45,48,-71,21,-8,16,-33,36,-127,-19,-417,11,0,20,-1107,-148,560,-6,8,0,-689,-82,106,-6,30,-13,-640,-40,122,-7,34,-18,-300,-17,76,-11,29,-24,-137,20,40,-8,30,-24,44,45,96,-7,27,-23,377,36,-61,-4,9,-18,449,17,-162,-8,1,-20,218,-2,-95,-6,4,-12,182,-12,-24,-4,1,-11,178,3,-83,-2,2,-9,137,5,-67,-2,0,-7,121,-2,-36,0,0,-4,137,-2,-49,0,0,-5,97,11,-20,0,0,-1,83,-2,-28,0,-1,-1,44,-7,-25,0,0,0,2,-1,-4,0,1,0,12,2,6,0,0,0,-12,-4,-4,0,0,0,3,-5,3,0,0,0,2,1,8,0,0,0,5,0,3,0,0,0,-1,1,3,0,-1,0,5,8,14,tilt left
20,-106,131,3737,363,-861,35,-105,66,799,201,52,24,-65,69,346,129,14,19,-53,55,56,80,15,18,-40,43,-58,17,-365,15,-14,20,-879,-113,405,0,1,14,-649,-144,55,-1,11,0,-635,-154,116,-5,20,-12,-544,-109,102,-9,28,-15,-401,-63,104,-13,31,-25,-258,12,145,-7,36,-21,62,35,-51,-11,23,-28,141,59,28,-7,24,-19,267,25,-90,-8,11,-20,252,23,-51,-5,6,-16,253,12,-140,-7,6,-17,197,11,-65,-3,7,-10,280,4,-99,-2,-1,-11,231,8,-62,0,1,-5,211,16,-66,0,0,-3,138,9,-51,2,0,-2,73,16,-27,1,-1,-1,8,12,11,1,1,0,-14,11,35,0,0,0,5,7,14,0,0,0,-2,4,20,0,-1,0,6,3,1,0,0,0,-1,-2,15,-1,-1,1,22,13,-1,0,0,-1,-11,-4,1,tilt left
31,-44,147,3593,185,-790,11,-77,65,1812,353,-351,26,-66,55,936,293,-102,26,-66,47,440,191,-21,24,-54,43,109,64,-172,18,-45,13,-881,-56,87,16,-13,17,-1024,-209,197,2,-1,8,-1038,-274,174,-7,26,0,-856,-241,156,-12,26,-12,-750,-143,129,-16,45,-19,-494,-40,157,-12,44,-21,-158,28,169,-11,40,-26,132,63,-32,-10,27,-25,300,71,7,-9,28,-23,547,69,-99,-5,9,-17,643,58,-194,-6,-1,-16,456,38,-140,-3,0,-11,331,35,-122,-1,-1,-6,210,21,-77,0,-2,-4,70,13,-62,0,0,-1,16,0,7,0,1,0,-8,4,-7,0,0,0,12,1,-11,0,0,0,-10,-8,31,0,1,0,16,-2,-25,0,-1,-1,5,1,32,0,0,0,14,-8,-16,0,0,0,-1,-2,14,0,0,0,0,2,-4,0,0,0,13,4,0,tilt left
-4,-148,77,3152,264,-1037,39,-73,80,348,70,-31,21,-52,60,126,20,-4,16,-37,48,-99,-20,12,13,-29,35,-124,-29,-359,12,5,18,-917,-96,484,-8,4,-3,-592,-47,168,-6,20,-14,-646,-14,145,-6,29,-21,-261,31,76,-8,26,-22,-114,38,10,-9,20,-26,-32,44,71,-6,26,-22,200,8,-14,-6,13,-21,431,0,-161,-7,2,-17,290,-21,-148,-6,3,-15,169,-12,-5,-3,5,-10,242,-6,-50,-2,1,-9,197,5,-70,-2,-1,-4,126,-5,-66,-1,-1,-5,35,-5,-11,-1,0,-2,76,-5,2,-1,0,-2,68,-2,-18,-1,-1,-2,55,0,-46,0,0,-1,12,3,-3,0,0,0,25,2,-32,0,0,0,-21,2,10,0,1,1,12,-2,-19,0,0,0,-3,-9,13,0,0,0,5,-1,-15,0,0,0,-16,5,31,0,0,0,12,0,-15,tilt left
38,-8,152,3138,-182,-1079,7,-58,61,1585,121,-454,24,-47,57,256,52,-6,18,-36,48,-73,-7,49,13,-26,40,-115,-12,-202,3,-26,4,-908,24,183,4,0,6,-1206,-49,499,-5,25,-5,-626,-23,171,-6,25,-14,-167,10,-23,-9,19,-31,-238,25,56,-8,30,-22,-19,15,97,-6,22,-24,295,3,-89,-8,8,-24,367,-4,-181,-8,4,-22,214,0,4,-3,8,-6,361,-8,-120,-2,-2,-9,305,-8,-45,0,1,-3,287,1,-103,-1,-6,-2,100,-3,-62,0,0,0,26,-5,-27,0,-3,-2,-9,1,-4,1,0,0,-7,2,-21,0,-1,0,-18,-1,3,0,2,1,10,1,1,0,0,0,-11,-1,6,0,3,1,10,-6,-12,0,0,0,-1,8,24,0,0,1,12,3,10,0,-2,0,-17,-1,4,0,0,0,-7,0,3,0,-1,0,-10,3,18,tilt left
37,-90,138,-2973,-8,866,18,-12,53,-1143,88,304,15,2,29,-518,9,148,7,-1,14,-268,-1,89,3,0,8,-194,0,286,-5,19,-21,484,-3,-153,-6,4,-18,356,-34,-95,-8,0,-15,214,-5,-58,-4,2,-9,194,2,-43,-2,0,-6,184,2,-74,-1,-1,-5,94,2,-28,0,0,-4,82,-9,-10,-1,0,-1,101,5,-48,-2,-2,-2,17,-3,-20,-1,0,-1,18,-1,-28,0,0,0,6,3,3,0,1,2,23,7,-13,0,0,0,-6,-6,-8,0,1,0,5,-3,-5,0,-1,0,-2,-5,20,-1,0,0,14,-4,-4,0,-2,-2,-3,-2,-6,0,0,-1,5,6,4,0,0,0,-4,3,-1,0,0,0,-9,0,-18,0,0,0,-1,1,11,0,0,0,0,-7,11,-1,0,0,-1,-9,0,0,-1,0,3,0,0,0,0,0,1,0,-4,tilt left
11,-129,92,3499,224,-1091,29,-79,72,417,129,-131,25,-50,60,131,54,-15,18,-36,48,-106,3,19,14,-27,38,-153,-8,-313,7,-1,14,-1132,-53,497,-2,15,1,-688,-41,242,-4,26,-11,-417,-10,102,-7,23,-20,-204,2,64,-10,22,-26,-157,18,116,-6,27,-22,171,17,-1,-7,17,-23,324,-11,-124,-9,5,-21,224,-23,-81,-7,6,-15,221,-3,-45,-5,5,-12,256,-5,-87,-4,0,-10,227,-6,-57,-3,0,-7,205,1,-86,-2,-1,-4,124,-1,-63,-2,-1,-4,69,2,-41,-1,0,-1,58,0,-20,-1,0,-1,34,0,-38,0,1,0,6,-4,-9,0,0,0,2,7,-1,1,0,1,-1,-5,9,1,0,0,-5,-5,-19,1,0,0,9,1,-5,0,0,0,-9,2,18,-1,0,0,-12,0,-5,0,0,0,7,0,7,0,-1,0,8,-2,7,tilt left
36,-89,135,2445,65,-748,27,-53,87,949,111,-273,25,-53,58,119,14,-6,17,-35,50,-29,-1,7,14,-27,39,-94,-13,-157,3,-11,8,-731,-18,169,-2,-3,-3,-912,-38,371,-6,25,-4,-528,19,107,-3,24,-16,-291,29,59,-7,24,-22,-220,37,29,-5,30,-20,-76,16,143,-5,26,-20,334,3,-121,-7,7,-24,272,-20,-92,-8,5,-19,155,-29,-46,-6,5,-14,218,-18,-16,-6,0,-13,228,-8,-105,-3,1,-11,169,-11,-54,-3,0,-7,196,-7,-56,-2,0,-5,186,3,-75,-1,-3,-4,112,0,-46,0,0,0,92,2,-36,0,-2,0,33,5,-28,1,1,1,-14,4,-20,0,0,0,-33,6,1,1,2,1,-15,2,16,0,-1,0,-11,-5,-16,0,1,0,-6,0,20,0,-1,0,-7,3,-2,0,0,0,2,-1,11,0,0,0,-5,-3,5,tilt left
30,-82,135,3626,-7,-1182,23,-93,57,894,144,-179,24,-51,75,210,81,-11,20,-45,53,101,57,-13,18,-34,45,30,23,-409,11,-18,16,-739,2,331,7,4,19,-456,-89,158,-1,-5,-9,-399,-83,75,-4,8,-8,-593,-88,160,-7,18,-12,-388,-5,109,-8,19,-22,-519,16,136,-7,34,-21,-344,43,95,-8,32,-21,-60,41,134,-8,30,-23,296,44,-140,-8,15,-26,147,-18,25,-7,19,-15,435,-19,-125,-8,0,-18,437,-14,-130,-4,3,-11,346,-4,-134,-3,-2,-9,226,-3,-55,-1,0,-3,234,-1,-83,0,-4,-3,98,0,-84,0,0,0,32,8,-18,0,0,0,-31,-6,14,0,0,1,4,4,-35,0,0,1,-35,-1,31,0,0,0,1,1,-20,0,0,0,-34,-4,37,0,0,0,15,6,-9,0,0,-1,-17,-6,-5,0,0,0,12,5,20,tilt left
16,-131,98,3182,205,-1094,37,-76,80,534,111,-67,20,-57,61,231,110,-19,19,-43,49,36,49,-16,18,-32,42,-56,-8,-401,12,-4,20,-756,-79,429,-1,0,5,-472,-97,136,-2,8,-5,-549,-104,143,-5,22,-9,-381,-64,132,-10,19,-16,-185,14,63,-11,17,-22,-260,48,93,-7,28,-18,-74,56,115,-7,20,-18,128,46,-97,-8,14,-19,204,25,-112,-7,12,-20,52,-12,-14,-4,16,-12,262,-15,-83,-6,1,-15,295,-6,-111,-3,5,-13,242,-9,-123,-3,-2,-9,151,-6,-15,-1,1,-4,169,9,-50,-1,-2,-4,122,11,-74,0,0,-1,28,-5,7,0,0,1,52,4,-29,1,0,0,-6,2,8,1,0,0,19,-4,-16,0,-1,0,-6,-10,26,0,-1,-1,6,-1,-17,1,0,0,-13,1,9,0,0,0,6,3,20,0,0,0,0,1,9,tilt left
38,-116,119,-2559,-12,879,21,-19,51,-1343,24,414,12,-4,25,-704,21,227,5,0,13,-407,-5,131,1,0,7,-214,-4,251,-6,25,-20,344,-6,-109,-8,9,-18,487,-18,-147,-8,3,-16,400,-16,-132,-4,0,-11,322,-1,-127,-2,0,-8,213,9,-54,0,-2,-3,203,10,-75,0,-3,-3,34,16,-33,0,0,2,15,6,12,0,0,0,-1,-3,13,0,1,2,4,-8,-38,0,-1,0,-18,-9,45,0,0,0,19,-17,-30,0,-1,-1,1,-10,0,-1,0,0,-5,3,4,0,0,-1,-6,-1,-24,0,1,0,-28,6,21,0,1,1,0,8,0,0,0,0,-3,4,10,0,0,0,12,3,1,0,0,0,-3,0,-11,0,0,0,8,0,3,0,0,-1,-12,3,-6,0,0,0,7,1,-10,0,0,0,-10,-3,5,0,0,0,1,3,0,tilt left
19,-85,149,3575,52,-1115,17,-100,59,663,107,-166,25,-49,64,169,18,-9,15,-45,49,-72,-15,13,13,-32,37,-105,-10,-355,8,-12,6,-958,-37,410,2,13,6,-691,-66,252,-7,14,-10,-536,4,151,-4,25,-19,-323,39,65,-6,29,-20,-232,29,114,-9,25,-23,-63,46,67,-6,27,-19,191,40,-51,-6,15,-23,237,-1,-78,-8,12,-17,243,-12,-79,-7,4,-16,253,-8,-49,-5,5,-13,246,-20,-117,-4,0,-10,238,-17,-54,-3,0,-7,186,-18,-58,-1,0,-2,139,-19,-64,0,0,-3,116,-16,-37,0,0,0,59,0,-48,0,0,-1,17,-5,3,0,0,2,-3,0,-16,0,-1,0,3,1,-22,0,0,0,-37,-4,24,1,0,-1,4,-5,-4,-1,0,1,-20,9,10,0,2,-1,18,-3,-12,0,0,0,-4,2,17,0,0,-1,4,3,-8,tilt left
38,-18,157,3154,-300,-1067,13,-60,57,1445,73,-401,26,-50,57,343,57,-20,16,-40,49,97,27,35,15,-35,39,-61,-3,-250,6,-23,8,-727,28,155,7,-3,15,-701,-51,333,-4,3,2,-470,-62,160,-6,6,-8,-425,-22,64,-8,20,-13,-509,25,151,-9,23,-17,-406,91,120,-8,24,-22,-301,74,68,-8,28,-26,-35,56,-27,-7,28,-24,83,0,21,-7,19,-20,440,-23,-116,-6,5,-22,420,-67,-101,-5,6,-17,432,-50,-161,-4,-2,-12,316,-29,-44,-2,-2,-10,297,3,-123,-1,-5,-6,142,12,-20,0,-1,-1,101,13,-66,0,-2,0,9,6,-9,0,0,1,-14,5,-16,1,0,0,-35,0,8,2,3,2,-3,-3,-10,0,0,0,0,-1,15,1,1,1,-12,-4,15,0,0,0,9,1,2,0,1,2,8,0,12,0,-3,-1,2,-6,0,tilt left
25,-119,128,-1701,114,580,19,-17,75,-821,44,216,9,-16,40,-362,58,85,6,-6,22,-375,38,99,4,-2,15,-305,24,242,-3,24,-14,82,-2,-33,-5,7,-21,117,0,-87,-5,11,-18,69,-24,0,-5,6,-14,219,-26,-24,-4,4,-11,298,-19,-103,-2,0,-8,260,-21,-75,-2,1,-5,238,-16,-73,0,-3,-3,156,-6,-60,0,0,-1,83,-8,-50,2,-2,0,-6,-5,1,0,0,0,-10,4,-5,1,0,1,-36,0,11,1,2,0,-14,-1,5,0,0,1,-2,9,24,0,0,0,8,3,5,0,0,0,8,3,-2,0,-1,0,0,4,17,0,0,0,8,0,-13,0,0,0,-12,0,6,0,0,1,5,-2,3,0,0,0,-13,-7,2,0,0,0,11,3,8,0,0,0,-14,-1,9,0,0,0,10,-3,-9,0,0,0,-8,5,0,tilt left
13,-72,137,3453,55,-1122,17,-92,51,670,115,-179,23,-42,59,163,59,-2,18,-39,47,8,35,10,14,-28,38,-35,-4,-358,12,-12,11,-769,-43,337,3,6,12,-524,-86,219,-5,0,-8,-489,-50,144,-6,17,-13,-462,-24,150,-6,20,-16,-319,29,59,-10,20,-24,-270,58,81,-6,31,-19,17,51,36,-6,24,-19,225,12,-23,-6,15,-15,408,-5,-162,-6,6,-16,324,-32,-98,-2,4,-9,307,-39,-88,-2,-2,-8,234,-24,-80,-1,0,-4,161,-1,-86,-1,-1,-4,63,-2,-60,-1,1,0,18,3,27,0,0,0,54,11,-40,0,0,0,1,11,2,0,0,0,14,-3,6,0,-1,0,-11,5,19,1,0,0,13,1,-9,0,-1,0,-9,7,4,0,0,0,8,-2,2,0,0,0,-15,9,-13,0,1,0,0,0,9,0,0,0,-2,6,-1,tilt left
-24,-152,21,4045,364,-1278,41,-70,77,-54,52,56,14,-55,49,109,32,-5,18,-37,44,-3,3,5,12,-27,33,-59,-32,-515,14,-1,23,-1000,-121,609,-10,0,-4,-404,-50,61,0,18,-6,-426,-13,115,-7,20,-17,-357,4,87,-8,22,-16,-162,45,19,-8,24,-18,-128,57,119,-4,28,-19,125,47,-7,-6,16,-18,174,0,-34,-7,9,-18,220,-8,-130,-4,7,-15,202,-18,-27,-3,6,-10,333,-23,-82,-2,-2,-9,307,-24,-119,-3,-2,-7,190,-13,-51,0,0,-2,150,0,-72,-2,-2,-2,27,0,-28,0,1,1,0,10,-10,0,0,1,-15,-1,-2,1,1,1,-2,0,12,0,0,0,-7,-9,-3,0,0,0,-16,-5,10,0,0,0,-11,-1,0,0,0,0,11,0,27,0,-1,-1,3,-3,-2,0,0,0,6,7,-11,0,0,-1,7,5,-6,tilt left
36,-107,132,-1952,-111,716,19,-34,62,-1023,9,362,10,-14,28,-654,19,217,6,-2,18,-436,23,153,1,-4,10,-280,19,240,-5,23,-20,151,31,-50,-7,16,-20,275,3,-105,-6,10,-14,355,-9,-92,-5,2,-14,343,-19,-115,-2,4,-10,265,-22,-81,-2,-1,-5,247,-2,-83,-1,-2,-4,135,-8,-53,0,-1,-2,38,-4,-30,0,1,0,12,1,8,0,0,0,19,5,-28,0,0,0,-3,-7,11,0,0,0,0,4,-7,0,0,0,10,3,-8,0,0,0,-8,-1,1,0,0,1,3,3,-3,0,0,0,-5,0,25,0,0,0,1,1,-20,0,0,0,-8,1,17,0,0,0,-1,2,4,0,0,-1,-6,-3,1,0,0,0,0,8,-10,0,0,0,-7,0,7,0,1,0,1,1,-15,0,0,0,8,0,4,0,0,0,4,0,-2,tilt left
-13,-153,78,3911,361,-973,31,-61,84,546,127,-5,27,-58,66,176,76,16,18,-42,44,16,7,-8,12,-34,37,-47,-14,-387,16,-1,20,-869,-89,388,-2,-9,-1,-484,-97,108,-10,5,-14,-691,-77,126,-9,21,-12,-656,-15,192,-4,34,-13,-312,18,70,-10,26,-25,-226,26,84,-8,33,-20,15,44,49,-5,28,-20,374,32,21,-4,14,-16,475,1,-216,-7,4,-21,273,-12,-60,-4,6,-9,308,-24,-139,-3,0,-13,240,-2,-48,-1,1,-6,207,-11,-86,-1,-3,-6,144,-4,-36,-1,-3,-2,80,-1,-67,0,0,-3,-13,11,-2,1,2,0,5,1,-33,0,0,-1,-12,-5,24,1,2,0,20,8,-45,0,1,-1,13,4,21,0,0,0,18,-3,3,0,0,0,14,1,26,1,1,0,19,12,-14,0,0,0,8,0,19,0,-1,0,10,6,15,tilt left
9,-89,128,4159,359,-1147,15,-113,58,1092,318,-133,26,-57,68,747,287,37,25,-63,45,521,220,51,25,-57,34,312,117,-391,22,-45,7,-833,-52,293,19,-10,9,-656,-201,85,4,-9,-7,-726,-287,33,0,3,1,-797,-338,-6,-14,21,0,-775,-268,-28,-13,21,-1,-652,-157,124,-20,43,-4,-428,-25,197,-10,27,-6,-247,52,82,-19,41,-20,-110,125,88,-5,35,-18,243,119,23,-9,37,-24,408,101,-44,-2,13,-20,503,64,-152,-10,15,-20,443,39,-22,-4,7,-11,405,21,-229,-5,2,-11,181,8,-1,-1,6,-4,189,6,-44,-1,0,-6,134,6,5,1,-1,-7,58,9,12,4,-4,-4,70,-1,-18,0,-3,-2,2,3,4,0,-1,0,40,8,-35,-2,0,1,-15,5,2,-1,2,2,-2,-2,-12,-2,1,0,-13,12,-19,-1,1,0,12,14,-1,tilt left
40,-120,128,-2986,-123,791,20,-31,51,-1352,-15,375,14,-4,29,-532,11,182,5,-5,13,-332,7,113,1,-2,7,-254,5,254,-5,24,-20,360,33,-40,-5,14,-17,408,10,-112,-8,1,-18,246,-2,-88,-3,5,-11,247,-12,-78,-1,3,-9,252,-15,-57,-2,0,-7,277,-7,-89,-3,-3,-5,137,-7,-53,0,0,0,115,-3,-64,0,0,0,17,10,0,0,-1,1,37,7,-24,0,0,0,-44,0,21,1,1,2,32,0,-41,0,-1,0,-52,1,43,1,0,0,9,-3,-34,0,0,0,-38,9,49,1,0,0,10,0,-33,0,0,0,-36,1,34,0,1,1,13,-1,13,0,-1,0,-1,2,-5,0,-1,0,7,-5,7,0,0,0,-5,-1,-9,0,0,0,0,4,-2,0,0,0,-2,2,0,0,0,0,-3,-7,-3,0,0,0,3,4,-5,tilt left
1,-151,59,3291,336,-928,31,-93,68,501,153,-29,26,-64,57,214,98,-13,22,-45,45,-37,9,-30,16,-32,37,-41,-3,-351,15,-3,22,-744,-92,369,-1,0,1,-533,-106,127,-6,11,-8,-736,-91,143,-7,25,-13,-527,-16,242,-6,29,-17,-292,0,46,-10,28,-21,-172,22,87,-8,32,-18,81,45,74,-6,26,-18,433,25,-60,-7,11,-16,478,5,-213,-8,2,-16,277,0,-105,-4,5,-10,199,-8,-79,-1,3,-7,230,-5,-81,-1,0,-6,167,-7,-85,-2,-1,-5,65,-4,-18,0,0,-2,58,-4,-13,0,-1,-1,38,7,-31,0,0,0,23,0,-14,0,0,0,-4,2,-3,0,0,0,9,2,-6,0,0,0,-8,3,-9,0,0,0,8,0,3,0,0,0,-5,5,15,0,0,0,2,7,-12,0,0,0,2,2,1,0,-1,0,-5,-2,18,tilt left
12,-146,70,2459,128,-628,19,-84,68,427,72,-58,21,-54,51,163,61,12,13,-43,40,-3,27,-2,14,-32,36,-48,-5,-225,8,-1,20,-604,-49,233,-2,-3,0,-557,-52,176,-6,12,-6,-579,-41,134,-3,28,-12,-435,-5,119,-9,25,-21,-266,15,68,-7,29,-21,-152,39,82,-3,35,-17,220,34,-4,-5,20,-17,325,2,-70,-7,7,-13,350,-14,-119,-4,5,-12,222,-9,-77,-4,2,-11,198,-21,-78,-2,2,-10,176,-13,-37,-2,0,-7,129,-2,-75,-1,0,-5,108,-9,-23,-1,1,-2,79,0,-19,0,0,-2,88,2,-88,0,0,0,-8,1,46,0,1,1,43,0,-45,0,0,0,-17,6,23,0,0,0,24,-2,-15,0,-1,0,-16,1,19,0,0,-1,1,3,-8,0,0,0,-11,-2,19,0,0,0,0,7,-20,0,0,0,-3,2,6,tilt left
-5,-144,62,3455,232,-1039,43,-86,67,259,44,89,12,-70,54,62,17,28,14,-48,41,-99,21,-14,16,-34,32,-184,-10,-415,11,0,18,-888,-80,542,-11,4,-3,-701,-38,160,-1,32,-10,-486,5,53,-5,33,-19,-374,-16,184,-13,31,-23,-136,29,-1,-8,29,-22,-81,47,173,-5,31,-18,435,23,-176,-6,11,-20,351,-19,-49,-5,6,-13,402,-7,-163,-3,3,-10,325,-19,-100,-3,-1,-9,273,-23,-98,-1,0,-6,197,-11,-91,-1,-2,-2,94,-1,-38,-1,0,-1,47,4,-41,0,1,1,-4,3,11,0,0,0,-1,7,-19,0,0,1,-29,0,10,0,0,0,-1,4,24,0,0,0,0,-1,-14,0,0,-1,-10,0,9,0,0,0,10,1,-19,0,0,-1,-16,0,8,0,0,0,0,-2,0,0,0,0,0,5,11,0,0,0,6,-4,-2,tilt left
28,-147,100,-2366,-2,825,21,-26,61,-1158,23,345,11,-12,28,-527,27,177,6,-5,18,-357,3,123,3,-2,10,-242,2,271,-3,29,-12,259,3,-89,-6,11,-19,308,-8,-117,-6,8,-12,281,-20,-84,-4,4,-13,289,-3,-108,-3,1,-9,242,-7,-67,-1,-1,-7,218,1,-69,0,-2,-4,138,-4,-72,0,-2,-2,24,-5,-33,0,0,0,-45,3,-1,0,2,0,-5,7,-12,0,1,-1,-26,-10,28,0,3,0,30,0,-26,0,0,-1,4,5,37,0,0,0,50,-1,-19,0,-1,-1,9,3,13,0,-1,0,19,3,-16,0,-1,0,-11,4,0,0,0,0,7,7,-9,0,0,0,-13,-2,1,0,1,0,0,-5,-10,0,0,0,-3,2,18,1,0,0,-1,-3,-11,0,0,0,-6,-2,17,0,0,0,5,0,-16,0,0,0,7,1,8,tilt left
8,-140,82,3097,264,-904,38,-91,72,232,69,5,18,-60,51,35,46,14,17,-45,45,-96,11,-4,15,-33,32,-167,-8,-330,8,-2,10,-1065,-67,483,-7,16,-4,-653,-27,186,-1,31,-10,-522,-21,105,-8,32,-22,-288,-5,90,-11,31,-23,-99,11,110,-6,29,-22,202,19,0,-4,22,-20,428,1,-117,-8,5,-20,433,-5,-117,-5,4,-12,337,0,-169,-3,2,-9,251,-2,-58,-2,0,-5,243,-8,-102,-2,-2,-5,115,-4,-48,0,-1,-1,53,0,-23,0,-1,-1,16,-4,-5,0,0,-1,4,0,-10,0,0,0,-3,10,1,0,0,0,5,3,2,0,0,0,5,-3,-2,0,0,0,3,2,13,0,0,0,1,0,-5,0,0,0,-4,-7,-19,0,0,0,0,-4,23,0,0,0,5,7,-7,0,0,0,-8,0,-13,0,0,0,2,2,2,tilt left
35,-39,146,3489,-109,-1048,2,-81,32,1397,164,-418,30,-46,59,182,51,-1,16,-44,44,18,23,13,14,-34,36,-69,-5,-252,7,-24,5,-889,2,140,9,3,18,-962,-95,446,-9,5,-10,-602,-38,185,-2,29,-13,-460,-19,77,-7,28,-23,-303,5,129,-11,29,-23,-128,19,88,-8,29,-24,147,30,11,-6,23,-20,354,2,-110,-10,7,-20,341,-4,-93,-5,7,-11,346,-15,-133,-3,2,-11,260,-2,-79,-2,0,-6,272,-17,-115,-2,-3,-8,103,-7,-21,-2,1,-1,125,-4,-81,-1,-1,-3,5,13,26,0,2,1,75,-4,-68,-1,-2,-2,-22,12,39,0,1,1,33,4,-35,0,-3,-2,-47,-3,19,0,1,1,24,-5,-18,0,0,-1,-20,6,10,0,1,1,9,0,-1,0,0,0,-1,4,8,0,1,0,39,2,-21,0,0,0,-9,2,14,tilt left
-4,-174,25,4349,254,-1031,34,-55,109,183,-9,76,15,-63,60,17,30,28,17,-42,46,-37,0,-1,13,-31,37,-57,-19,-427,9,0,29,-1022,-80,511,-8,-13,-15,-534,-21,106,-2,23,-10,-512,-7,99,-5,27,-13,-354,16,93,-10,23,-21,-195,39,24,-7,29,-19,-162,37,94,-2,35,-17,222,31,-27,-5,15,-18,376,-9,-117,-7,7,-17,332,-12,-163,-3,6,-12,184,-16,-20,0,5,-11,285,-14,-92,-2,-2,-9,219,-9,-59,-1,-1,-6,65,-13,-64,0,0,-4,59,-17,9,0,1,-3,37,-9,-28,0,0,-2,35,1,-20,0,2,-1,16,-1,32,0,1,-1,62,17,-50,0,0,-1,3,18,58,0,0,0,30,4,-22,0,0,0,3,4,21,0,-1,0,14,0,-2,1,0,0,-1,-1,6,0,0,0,-3,-4,-12,0,0,0,-2,2,2,tilt left
16,-122,101,3067,168,-885,35,-82,72,238,14,44,15,-62,54,84,18,30,14,-44,44,-70,2,2,13,-32,33,-155,-22,-322,5,-6,10,-929,-62,482,-10,9,-4,-601,-9,166,-1,30,-7,-380,-6,27,-7,23,-21,-265,8,106,-10,30,-18,-101,31,38,-6,26,-19,97,37,71,-1,22,-15,344,0,-192,-7,4,-20,217,-5,-26,-3,11,-8,299,-14,-149,-4,0,-12,228,-13,-75,-1,3,-8,174,-6,-75,-2,1,-6,164,2,-37,-1,-1,-4,43,6,-40,0,1,-3,21,-3,-30,0,0,-3,18,-1,25,-1,1,-2,42,-7,-45,0,0,-3,-1,2,56,0,2,0,78,-3,-47,0,-2,-2,-2,0,35,0,1,0,19,4,-35,1,0,0,7,3,44,0,0,0,7,-1,-18,0,0,0,-2,-1,5,0,0,0,9,3,-21,0,0,0,-4,0,12,tilt left
17,-144,58,3024,193,-878,26,-81,64,355,104,-26,18,-53,55,125,73,5,16,-42,44,-56,18,15,14,-30,36,-69,-15,-316,6,-4,18,-829,-66,401,-2,4,0,-625,-56,169,-2,19,-11,-591,-27,157,-4,30,-15,-324,-3,72,-10,27,-22,-195,19,34,-6,31,-20,31,37,58,-5,27,-19,292,14,-37,-6,12,-16,377,-10,-114,-6,4,-15,288,-8,-98,-4,2,-12,217,-4,-100,-3,1,-9,135,-8,-34,-2,2,-6,153,1,-26,-2,0,-6,140,-3,-70,-1,0,-3,82,-1,-55,0,0,-2,41,2,10,0,0,-1,50,2,-13,0,0,-1,39,-3,-33,0,0,1,-3,-2,12,0,0,0,5,2,5,0,1,0,7,0,0,0,0,0,3,-6,-5,0,0,0,2,10,5,0,0,0,0,2,3,0,0,0,-5,0,-10,0,0,0,2,0,6,tilt left
2,15,156,7517,75,-2186,24,-142,34,-308,-41,173,18,-69,48,115,-7,7,16,-42,48,-30,-18,-5,12,-34,36,-65,-29,-924,7,-41,-2,-1867,-47,1117,-1,29,14,-329,11,20,-3,30,-2,-603,11,144,-8,25,-16,-279,38,58,-8,28,-22,-310,50,159,-5,35,-17,38,44,-7,-5,28,-19,186,21,32,-6,10,-22,313,3,-179,-5,10,-21,175,-23,-56,-5,7,-15,276,-22,-109,-5,5,-13,292,-10,-99,-4,-1,-13,221,-13,-56,-2,2,-7,123,-8,-63,-2,0,-4,148,1,-34,-1,0,-4,126,16,-82,-1,-1,-2,76,18,3,0,0,1,49,13,43,0,0,0,105,14,-62,0,-1,-1,-18,9,26,2,0,2,-9,1,10,2,-2,0,-37,-5,35,1,0,1,-3,-12,-21,0,0,0,-12,-16,-3,0,-1,1,3,-3,-11,-1,-1,0,-27,-16,-2,tilt left
59,61,136,5060,-503,-1842,-7,-91,22,1824,100,-493,18,-55,57,593,59,-59,16,-45,48,188,51,40,17,-35,41,29,-2,-502,0,-47,9,-1111,58,394,11,-2,16,-1245,-88,434,0,17,-5,-892,-66,271,-5,26,-9,-565,-56,148,-13,27,-20,-458,-21,-27,-6,36,-15,-194,7,170,-7,34,-15,245,25,-5,-8,18,-17,373,10,-137,-8,7,-28,200,-6,-10,-5,10,-16,321,-11,-207,-7,0,-18,291,4,-66,-5,0,-9,334,4,-197,-3,-3,-10,156,2,4,0,3,0,244,9,-103,-2,-1,-2,94,17,-59,0,0,-1,11,8,-41,2,5,1,-39,-3,55,-2,0,0,15,-5,2,0,1,0,-10,-3,27,0,-1,-1,20,10,11,0,0,2,11,15,13,0,-1,0,-14,20,24,3,0,0,15,23,5,1,-1,0,-5,18,29,2,0,0,0,12,-27,tilt left
34,-110,137,-3003,-78,902,16,-14,60,-1513,21,496,9,-3,31,-655,24,240,3,-2,11,-445,1,148,1,2,11,-219,0,217,-5,24,-23,448,12,-78,-7,7,-22,529,-21,-211,-6,4,-17,394,-24,-119,-4,1,-8,358,-9,-169,-2,-1,-11,210,-10,-78,-2,-2,-4,146,-14,-32,0,0,-1,81,1,-56,0,-2,-1,0,0,0,0,0,0,1,-3,8,0,0,0,17,-5,-1,0,0,0,10,-3,6,0,-1,0,-4,5,5,-1,-1,0,6,-3,-2,0,0,0,-5,5,1,0,0,-1,-4,9,-19,-1,0,0,-5,22,17,0,0,0,-1,3,-1,0,1,0,3,11,2,0,0,0,1,2,18,1,0,0,-7,2,-10,0,0,0,-1,-5,11,0,0,0,-1,-5,-2,0,0,0,-13,0,-9,0,0,0,4,3,1,0,0,0,7,-3,0,tilt left
37,-107,139,-2357,-72,736,25,-17,81,-455,15,178,9,-25,30,-566,17,206,7,-8,24,-365,11,116,4,-7,14,-297,15,317,-3,19,-18,122,23,-172,-8,7,-24,-66,0,87,-3,18,-14,214,-10,-120,-6,7,-18,246,-15,-88,-4,9,-12,262,-21,-43,-5,1,-10,348,-10,-90,-2,0,-7,252,-7,-93,-1,-2,-2,217,1,-91,0,-3,-1,33,12,11,1,-1,0,42,0,-25,2,0,2,3,5,28,1,-1,1,-2,-4,-62,0,-2,0,-99,0,74,0,2,2,18,-4,0,0,0,0,-21,4,8,-1,0,1,14,-1,-2,0,-1,-1,-21,5,12,0,1,0,1,-4,-16,0,0,0,-12,6,23,0,0,0,5,-3,-17,0,0,-1,-22,2,5,-1,0,0,14,4,10,0,0,0,0,8,-6,0,0,0,0,0,17,0,-1,0,8,-1,-1,tilt left
36,0,158,3220,-44,-1088,2,-80,34,1421,194,-373,33,-38,66,191,56,10,13,-44,43,39,23,8,14,-34,34,-49,-5,-304,8,-29,0,-783,-20,157,7,0,12,-971,-90,430,-12,6,-15,-673,-29,180,-1,29,-11,-456,0,58,-8,29,-18,-310,15,92,-12,25,-21,-258,46,168,-5,33,-17,109,28,16,-6,18,-22,423,-2,-138,-9,6,-24,284,-8,-108,-6,6,-16,312,-7,-66,-4,4,-13,381,-15,-131,-4,-1,-11,300,-12,-144,-2,0,-4,133,4,2,0,0,-1,145,1,-78,0,-1,-2,47,-1,-7,1,0,0,9,14,-10,0,0,1,-1,0,-6,0,0,0,-3,-4,7,0,1,0,-2,-2,-3,0,0,0,-4,7,0,0,0,0,-1,-8,-5,0,1,0,-7,-4,11,0,0,0,-6,2,-8,0,0,0,-6,1,8,0,-1,0,-2,0,-5,tilt left
53,90,122,6083,-221,-2168,-19,8,29,4410,482,-1615,43,-100,45,115,26,154,20,-65,40,228,22,28,18,-51,35,-77,-12,-190,6,-72,2,-1594,5,-422,18,-47,11,-2646,-253,1817,-18,54,-10,-1124,-45,270,-10,57,-14,-861,-48,194,-16,50,-26,-248,-14,-92,-16,55,-21,241,26,177,-12,43,-21,876,66,-88,-9,4,-15,1071,33,-452,-7,-7,-17,671,26,-332,-3,-2,-8,305,24,-116,-1,-2,-4,103,11,-104,0,-1,-2,0,0,-29,0,0,-1,-46,-3,15,0,1,-1,11,0,-11,0,1,0,-5,6,4,0,0,0,31,7,-15,0,1,0,-2,0,18,0,0,0,28,-6,-22,0,-1,0,-9,7,15,0,0,0,19,-3,-8,0,0,0,-11,-2,13,0,0,0,1,1,-10,0,0,0,-10,6,9,0,0,0,-2,-4,-3,0,0,0,-16,-4,4,tilt left
9,-58,148,5709,568,-2028,25,-154,46,1470,389,-173,48,-66,72,442,170,61,29,-74,46,57,32,44,24,-56,33,-167,-7,-727,14,-40,-4,-1844,-176,832,5,35,6,-1442,-234,521,-17,36,-17,-891,-157,236,-16,55,-17,-500,-65,-49,-19,55,-20,-285,-26,193,-12,53,-15,421,36,163,-14,26,-21,719,81,-314,-10,5,-23,599,59,-285,-7,3,-19,485,47,-162,-4,0,-12,468,32,-161,-3,-1,-9,299,23,-154,0,0,-2,162,5,-77,0,-1,-2,50,4,-47,1,0,0,-15,-7,7,1,0,0,0,10,7,1,0,0,-1,8,-5,0,-1,0,-18,-1,16,0,0,0,-4,-10,9,0,0,0,-3,-3,8,0,0,0,0,-6,-1,0,0,0,-1,-4,17,0,0,0,4,-1,-2,0,-1,0,0,5,-2,0,0,0,0,1,-1,0,0,0,4,1,-3,tilt left
52,82,126,5024,-209,-1966,3,-22,32,3098,240,-1271,22,-99,34,677,122,-124,21,-52,45,240,72,18,18,-51,38,70,42,-256,10,-67,11,-1000,71,-142,19,-44,22,-1375,-100,863,0,8,5,-1014,-100,317,-3,12,-14,-1108,-102,354,-6,51,-15,-795,-72,241,-13,49,-20,-491,-50,14,-15,52,-23,-239,-13,76,-9,53,-18,437,16,175,-10,29,-16,883,42,-336,-9,-1,-19,687,24,-293,-4,2,-12,463,17,-159,-3,0,-10,348,16,-136,-1,0,-5,125,13,-89,0,0,-4,40,1,-24,-1,0,-1,14,0,5,0,-1,-3,18,5,-14,0,1,-1,-34,0,29,0,0,-2,13,0,-31,0,0,-1,-72,-3,33,0,2,-1,43,-1,-28,0,0,-1,-9,2,25,-1,0,-1,82,3,-32,0,0,0,25,-4,21,0,0,0,73,3,-55,0,-2,0,-45,8,35,tilt left
29,87,133,7278,-37,-2604,-26,-141,-25,2737,455,-686,41,-69,75,418,111,96,21,-79,39,108,64,33,22,-51,38,-24,1,-785,12,-70,3,-1850,-31,497,23,16,38,-1784,-239,863,-13,24,-22,-1016,-120,255,-6,61,-7,-614,-74,29,-14,48,-21,-335,-7,68,-12,50,-16,72,38,129,-9,41,-18,520,62,22,-8,16,-16,643,48,-318,-8,4,-20,454,16,-183,-5,4,-13,388,-2,-113,-3,2,-11,361,0,-128,-1,-3,-8,198,-14,-67,-1,0,-5,95,0,-22,0,-1,-1,106,-2,-63,0,-1,-2,-19,7,4,0,1,1,-13,0,-17,0,2,0,-6,5,26,0,1,0,56,5,-30,0,-1,0,-15,4,24,0,0,0,9,0,-26,0,-1,0,-6,0,22,0,0,0,-10,-3,-11,-1,0,0,-15,0,2,0,1,0,3,10,-17,0,1,0,0,1,19,tilt left
21,142,70,3228,-193,-848,5,13,36,3207,-150,-1237,-1,0,31,2510,216,-793,16,-77,37,53,-1,83,14,-48,34,104,29,155,13,-74,23,-721,28,-168,12,-53,18,-1502,35,26,10,-44,11,-2095,-175,1292,-6,34,-7,-795,-6,152,-5,47,-15,-841,-42,221,-12,47,-21,-393,-5,40,-13,49,-23,-97,11,109,-9,45,-25,412,45,-40,-7,26,-20,658,9,-190,-10,2,-19,702,15,-294,-7,-3,-16,456,21,-167,-3,0,-10,283,14,-97,-1,0,-6,200,1,-72,0,0,-3,91,-11,-18,0,-2,-1,52,3,-37,0,0,0,18,-7,9,0,-1,0,38,0,-26,0,0,0,-27,-2,13,0,0,0,1,10,-21,0,0,0,-20,-6,6,0,1,0,-3,6,-2,0,0,0,-6,-2,9,0,0,0,4,0,-8,0,0,0,0,-5,6,0,1,0,7,4,1,tilt left
14,-79,134,4530,382,-1767,8,-121,46,1765,405,-355,41,-73,64,360,172,72,27,-74,44,137,74,26,24,-54,35,-27,16,-562,20,-37,5,-1167,-102,405,14,0,10,-1283,-205,501,-9,12,-13,-997,-181,230,-7,52,-10,-740,-118,182,-13,51,-13,-329,-49,40,-15,45,-17,-122,-9,130,-11,48,-16,249,12,137,-11,29,-18,591,60,-128,-10,8,-19,516,41,-301,-9,0,-22,226,23,-48,-7,10,-13,289,18,-95,-6,-2,-15,242,17,-132,-3,4,-8,120,7,-70,-3,0,-8,126,8,-46,-2,3,-4,124,5,-55,-1,-1,-3,114,14,-42,0,2,0,91,7,-12,0,0,-1,83,4,-52,0,-1,0,-28,5,0,0,0,0,10,3,-32,0,-1,-1,-23,-3,30,0,0,0,-6,8,-23,0,0,0,-13,6,18,0,0,0,12,-4,-12,0,0,0,-7,-2,33,tilt left
29,97,127,7299,-153,-2628,-46,-112,-22,3184,458,-763,34,-67,77,184,96,123,22,-75,43,180,65,49,20,-53,41,42,17,-737,15,-71,14,-1507,31,368,37,-2,49,-1352,-205,717,-2,-13,-9,-335,-99,-41,-2,17,1,-619,-116,69,-6,16,-13,-682,-73,206,-11,38,-13,-650,-51,202,-9,45,-14,-369,-6,95,-11,49,-16,-92,32,94,-10,40,-19,241,51,22,-11,32,-17,493,47,-49,-6,10,-16,539,25,-231,-9,-1,-20,321,15,-139,-4,2,-16,215,-6,-75,-7,-1,-17,62,2,-83,-3,5,-10,-1,4,6,-4,3,-13,70,31,-49,-1,3,-9,34,15,-37,-4,2,-8,106,16,-2,0,4,-4,177,1,-40,-2,0,-5,154,7,-64,0,0,0,105,-5,-6,-1,0,0,87,1,-49,0,-1,0,16,-3,-11,0,0,0,-5,10,19,1,-1,0,5,10,-22,tilt left
43,-39,149,2617,-32,-1003,20,-37,83,2052,131,-735,18,-68,54,977,159,-317,21,-61,47,218,91,9,18,-52,42,171,111,-103,11,-37,14,-331,139,44,17,-42,8,-657,85,224,21,-17,9,-605,-35,387,18,-3,6,-326,-105,-49,11,3,2,-390,-203,100,5,-8,-1,-514,-273,48,-1,21,2,-471,-302,11,-17,14,-7,-566,-246,181,-25,31,-14,-583,-95,342,-22,45,-16,-344,35,244,-19,46,-19,-113,127,-57,-18,34,-25,29,163,111,-12,40,-21,384,182,-21,-7,22,-17,607,115,-265,-6,2,-18,493,45,-211,-5,6,-14,398,0,-235,-3,2,-10,283,-13,-116,-1,3,-4,190,-10,-59,-1,-1,-3,143,-1,-48,0,-1,-1,53,-2,-27,0,0,0,48,-1,-33,1,-1,0,-30,3,32,1,0,0,1,10,-13,1,0,0,-33,2,0,1,1,0,3,1,5,tilt left
21,-398,15,1393,217,-179,38,-78,96,536,175,33,27,-89,64,144,112,51,19,-65,42,113,70,16,21,-49,37,58,30,-87,14,33,33,-305,-51,62,3,-15,-2,-322,-110,36,-1,5,-4,-311,-123,19,-3,6,-1,-567,-114,126,-11,20,-10,-602,-104,187,-9,28,-10,-446,-38,166,-11,33,-13,-258,24,55,-10,35,-19,-244,58,146,-9,42,-20,60,60,67,-7,30,-16,332,74,-128,-9,18,-21,320,49,-207,-6,14,-20,235,10,-76,-5,14,-13,379,-3,-71,-3,4,-12,405,-4,-183,-2,0,-12,206,0,-78,-1,0,-6,166,-3,-43,-1,0,-3,134,1,0,0,-2,-2,100,6,-52,0,-1,-1,11,5,7,0,-1,0,11,-3,-22,0,0,1,-23,-1,5,0,0,0,9,3,-15,0,1,0,-5,-5,0,0,0,0,0,0,-14,0,1,0,-3,0,18,tilt left
33,-278,115,2259,624,-160,47,-125,93,631,280,104,31,-91,62,210,123,52,27,-69,45,47,67,-7,22,-52,36,-67,8,-122,14,6,13,-573,-150,113,1,2,0,-404,-155,15,0,9,0,-408,-139,21,-7,7,-5,-467,-137,124,-11,24,-8,-456,-65,211,-9,30,-10,-399,-13,200,-10,36,-12,-244,12,100,-12,37,-18,-61,49,49,-8,42,-14,143,66,16,-8,24,-17,246,54,-55,-8,18,-17,275,32,-179,-9,10,-21,230,26,-95,-6,8,-19,207,18,-113,-7,5,-17,186,22,-53,-4,4,-12,302,2,-79,-3,0,-12,224,11,-88,-1,0,-4,215,8,-50,-1,0,-2,119,-6,-8,1,0,0,123,-2,-81,0,0,0,-41,3,37,0,1,2,60,0,-58,0,0,0,-70,7,40,0,1,0,35,8,-22,0,0,0,-36,-2,16,0,0,0,24,3,-29,tilt left
62,39,155,4668,-176,-1860,-26,-9,37,3695,503,-1453,36,-93,50,-96,107,59,27,-58,47,192,106,-25,23,-42,42,-20,34,-160,10,-54,9,-1015,35,-439,32,-38,25,-1569,-221,1279,-1,11,7,-168,-118,-39,-3,7,-1,-461,-160,138,-8,12,-11,-478,-106,227,-11,29,-13,-422,-48,171,-11,30,-14,-204,0,129,-12,32,-19,-163,53,-14,-10,37,-18,-12,68,156,-10,24,-18,275,68,-70,-7,15,-15,308,48,-248,-8,10,-18,187,31,-71,-4,11,-13,295,-5,-105,-6,1,-14,248,13,-143,-2,6,-8,193,16,-63,-2,1,-7,179,-1,-117,-1,2,-4,98,-12,-5,-2,0,-2,91,8,-34,0,0,0,63,0,-26,0,-2,-2,32,-14,0,0,-1,0,-10,0,8,0,-1,0,7,0,-5,1,1,0,-13,-11,11,0,-1,0,8,-10,-1,0,1,1,-13,-4,2,tilt left
100,-235,175,77,128,152,38,-123,82,73,88,29,26,-74,62,-145,12,1,20,-54,43,-277,-6,75,15,-39,36,-338,-27,169,-9,14,-7,-547,-62,194,-5,35,-7,-514,-42,113,-7,35,-15,-290,-9,161,-10,37,-16,-107,7,33,-11,34,-25,29,35,150,-9,32,-15,317,36,-152,-8,11,-19,328,12,-158,-7,10,-18,263,5,-124,-5,4,-17,202,10,-92,-4,7,-10,252,-2,-115,-4,0,-12,194,9,-103,-2,3,-7,131,0,-56,-3,0,-5,113,-3,-33,-1,3,-2,124,-7,-32,-1,-1,-2,61,2,-32,1,1,-1,26,2,7,0,0,0,38,-4,-6,0,0,0,41,9,-7,0,-2,0,-9,-1,0,0,0,0,7,-4,13,1,0,0,-14,-4,-1,0,-1,0,-13,5,-16,0,0,0,-40,-3,25,0,1,0,10,1,-2,0,-1,0,-12,0,-2,tilt left
52,86,126,4625,-164,-1767,2,49,44,4216,458,-1632,31,-102,51,-207,-2,157,19,-55,42,262,82,-33,21,-40,44,-54,22,-48,8,-64,11,-996,32,-677,17,-63,19,-1813,-200,1559,-2,21,5,-128,-35,-169,-2,0,-2,-621,-118,192,-10,21,-18,-545,-63,237,-9,37,-12,-388,-12,152,-10,34,-17,-260,11,88,-10,37,-21,-78,40,1,-9,43,-18,171,49,108,-8,17,-18,382,44,-223,-7,12,-17,305,9,-132,-7,8,-17,298,12,-125,-4,3,-13,278,-6,-121,-4,2,-13,238,1,-87,-1,2,-6,238,-5,-56,-2,-2,-6,155,1,-55,0,1,-1,88,-6,-34,0,-1,-1,46,0,-26,0,0,1,6,1,5,0,0,0,-19,2,10,0,0,0,0,1,2,0,0,0,18,5,0,0,0,0,5,2,7,0,-2,0,-2,-5,-5,0,0,0,6,8,2,tilt left
44,-77,134,3293,62,-1333,13,-115,51,1209,111,-400,23,-68,50,329,49,-60,18,-56,43,49,45,-14,17,-45,36,-3,18,-371,10,-26,12,-716,-19,265,12,1,15,-666,-73,318,0,-2,2,-619,-76,199,-3,14,-8,-666,-90,277,-5,40,-11,-470,-40,171,-11,32,-18,-251,-9,69,-11,36,-21,-201,15,62,-10,39,-19,123,38,133,-8,31,-16,451,51,-214,-10,5,-17,412,8,-253,-7,8,-14,270,16,-78,-3,7,-9,375,0,-138,-1,1,-8,290,5,-107,-1,-1,-4,171,-1,-91,0,-2,-4,54,9,-20,0,0,-1,24,-8,-21,0,0,-1,-6,7,-1,0,1,0,1,-4,-14,0,0,0,-6,-2,14,0,1,0,-2,-2,-5,0,0,0,1,0,3,0,0,0,5,-6,6,0,-2,-1,-5,0,6,0,0,0,7,2,0,0,0,0,3,0,5,tilt left
80,-286,82,1484,264,-332,36,-96,88,-3,-9,68,19,-76,56,-128,5,18,18,-50,41,-167,-6,48,12,-44,29,-362,-25,-28,-7,24,6,-911,-95,428,-6,27,-14,-564,-3,157,-4,41,-15,-284,-11,65,-10,34,-22,-210,8,62,-11,41,-23,-33,26,148,-9,34,-20,385,47,-122,-9,10,-22,421,15,-255,-8,6,-20,269,22,-137,-5,5,-14,288,-1,-36,-4,3,-10,379,-1,-184,-1,0,-6,225,-1,-58,-1,1,-2,153,-11,-62,-1,-1,-2,86,-16,-20,0,0,-1,61,-6,-35,0,-1,-1,16,-3,6,0,0,-1,9,-4,-10,0,-2,0,-13,3,2,0,0,0,8,-1,-6,0,0,0,-11,2,18,0,1,1,2,0,-13,0,0,0,-11,-2,7,0,1,0,10,3,0,0,0,0,-4,0,-1,0,0,0,9,2,0,0,0,0,-7,3,11,tilt left
72,-270,136,-176,150,-17,51,-97,97,131,118,-1,29,-73,65,-166,-2,36,22,-52,48,-154,5,48,15,-41,36,-337,-29,107,1,27,7,-232,-69,97,-10,8,-10,-487,-60,210,-8,31,-15,-451,3,145,-8,37,-18,-337,5,202,-10,40,-22,-61,40,-80,-12,27,-25,-10,53,36,-7,31,-22,271,9,-69,-7,12,-20,449,1,-215,-8,5,-18,408,-11,-148,-4,2,-12,384,-15,-129,-3,0,-8,292,-13,-94,-2,0,-5,167,1,-58,0,-1,-3,106,-2,-57,0,0,-2,56,-1,-20,0,0,-1,17,0,-20,0,-1,0,-14,1,2,0,0,0,4,-4,-26,0,2,1,-6,-1,21,0,0,0,4,2,13,0,0,0,2,5,-2,0,1,0,9,-1,-3,0,-1,0,0,2,30,0,-1,0,4,-2,-15,0,0,0,0,0,6,0,-1,0,0,0,-3,tilt left
18,-136,94,4734,401,-1851,35,-146,66,260,111,-90,30,-62,65,86,54,-16,22,-54,48,-144,-8,24,17,-39,38,-180,-19,-660,10,-11,16,-1373,-112,836,-2,30,3,-622,-77,252,-10,23,-18,-697,-48,275,-10,44,-21,-413,8,85,-13,40,-24,-98,15,117,-11,35,-27,166,32,-58,-9,28,-23,292,23,-42,-7,16,-17,520,15,-204,-7,0,-16,434,-5,-236,-5,1,-12,257,0,-124,-2,3,-9,253,5,-59,-2,2,-6,242,8,-99,-1,-3,-4,134,2,-26,0,1,-1,98,2,-66,1,-3,-1,20,2,3,0,1,1,13,-6,-12,0,-1,0,-26,-3,-2,0,3,2,-11,0,14,0,-1,0,-4,0,-9,0,2,0,0,0,23,0,-1,-1,-6,-1,2,0,0,0,10,-4,0,0,-2,-1,-6,-4,10,0,0,0,5,-2,-9,-1,-1,0,-11,6,1,tilt left
13,-79,136,6010,493,-2100,43,-153,57,345,58,0,23,-67,64,183,32,48,19,-60,50,-114,-8,36,17,-45,38,-100,-5,-807,13,-27,9,-1514,-131,926,-4,23,9,-668,-75,251,-4,26,-12,-694,-41,216,-6,44,-16,-330,-3,67,-12,39,-21,-243,-1,81,-12,39,-24,-41,34,90,-10,38,-21,298,60,-38,-9,14,-21,468,31,-237,-6,5,-19,382,18,-194,-5,6,-14,299,5,-84,-4,5,-9,339,-9,-115,-2,0,-8,239,-16,-105,0,0,-2,128,-17,-78,-2,-1,-3,43,-16,3,0,0,0,38,-8,-20,0,-1,-1,21,-2,-26,0,0,-1,-1,-3,-1,0,0,0,-5,1,5,0,1,0,9,-2,-3,0,0,0,15,3,-5,0,1,0,8,0,1,0,0,0,-9,8,6,-1,0,0,9,2,3,0,0,0,-4,6,6,0,0,0,5,0,2,tilt left
56,13,149,4228,32,-1833,17,-64,44,2341,285,-928,28,-87,51,145,28,5,20,-55,47,42,25,-3,17,-45,37,-66,-1,-360,7,-44,7,-888,-10,-1,11,-17,19,-1065,-137,794,-1,10,3,-347,-45,74,-5,3,-9,-566,-56,216,-8,30,-14,-594,-7,251,-8,39,-14,-442,13,155,-11,36,-21,-290,25,21,-11,41,-24,-130,21,109,-8,41,-22,274,36,5,-8,17,-19,513,5,-274,-10,2,-23,388,-15,-166,-6,8,-16,380,-5,-115,-5,0,-12,366,5,-130,-3,1,-9,258,-6,-93,-2,-3,-6,140,2,-65,-1,2,-1,97,-1,-32,-1,-3,-2,29,7,-28,0,2,1,19,-1,-10,0,-1,0,3,2,-2,0,2,1,5,3,1,0,-2,0,10,7,-17,0,2,1,12,-3,1,0,-2,-1,0,3,-10,0,1,1,-10,-1,9,0,-1,0,-7,-1,14,tilt left
14,-165,69,4488,592,-1831,41,-134,78,297,104,-59,28,-69,63,82,34,-22,22,-54,50,-76,3,2,17,-41,39,-57,-9,-702,14,-7,25,-1051,-144,744,0,14,5,-364,-72,104,-6,6,-9,-608,-48,265,-6,30,-15,-554,-6,217,-6,38,-15,-382,11,157,-10,35,-24,-221,37,-34,-10,37,-24,-100,29,163,-8,35,-21,339,34,-74,-8,14,-22,416,5,-254,-10,4,-24,303,10,-143,-7,6,-15,272,-10,-81,-5,3,-14,310,4,-139,-2,2,-9,260,-10,-63,-3,-1,-7,198,-3,-77,0,1,-2,175,-16,-35,0,-1,-2,101,1,-33,0,0,1,61,-10,-44,1,-2,-1,-33,0,23,1,2,4,21,-10,-17,1,-3,0,-30,-4,2,0,2,1,4,-14,-1,0,-1,-1,-18,6,14,0,1,1,6,0,-9,0,-1,-1,-2,9,0,0,2,0,-11,6,22,tilt left
-59,-1,-166,1058,209,-160,-26,-3,-76,1178,138,-267,-10,6,-37,1045,93,-303,-10,-6,-25,808,55,-231,-6,-7,-11,293,24,-34,5,-4,27,-162,-26,23,7,1,31,-384,-44,-3,4,-5,21,-628,-54,51,7,9,24,-543,-32,176,3,4,13,-281,-8,164,5,7,8,-64,-17,-37,2,0,1,-75,-13,83,1,2,2,-26,2,-48,0,-3,-1,-99,-18,63,2,3,0,-31,-13,43,0,0,-1,-6,-1,-17,-1,0,-1,-27,2,20,0,1,0,9,-8,-5,0,0,-1,4,4,21,0,0,-1,-7,-2,-8,0,0,0,29,-2,0,0,0,-1,11,-1,6,0,-1,0,14,-3,-30,0,0,-1,-6,0,25,0,0,0,15,-4,-19,-1,0,0,-7,6,-8,0,0,0,8,4,13,0,0,0,0,1,-9,0,0,0,6,0,2,0,0,0,19,-3,-3,tilt right
-55,-79,-145,-934,-364,186,-31,-22,-93,-290,-239,66,-21,-16,-66,-69,-34,23,-17,-10,-48,60,45,-20,-11,-9,-33,144,37,15,2,18,-1,598,118,-149,6,7,15,780,135,-196,5,7,20,582,64,-179,8,0,27,213,5,15,7,6,28,-21,-7,-9,7,-4,29,-308,-23,-32,5,0,22,-591,-28,104,7,2,21,-513,-27,193,5,7,13,-242,-32,83,2,2,8,-156,-18,32,1,3,3,-113,-19,21,0,1,2,-82,-1,62,0,0,-1,-63,-9,-6,0,1,-1,-31,-1,44,0,0,0,28,-7,-7,0,-1,-1,-7,3,-16,0,1,-1,1,-2,20,0,0,0,33,0,-20,0,0,0,0,-4,-7,0,0,-1,-14,4,-2,0,1,-1,9,2,11,-1,0,0,2,5,-10,0,0,-1,-7,3,4,0,0,0,-3,8,8,0,0,0,15,4,-13,tilt right
-49,-37,-150,-578,-295,201,-26,-28,-84,-221,-160,55,-19,-13,-66,28,-28,-9,-14,-11,-45,116,15,-16,-11,0,-29,348,11,-28,1,7,4,642,77,-177,3,11,12,736,81,-228,6,-2,25,270,33,1,8,4,28,-48,0,2,11,4,27,-188,-7,21,8,-1,26,-229,-18,-112,6,-6,21,-543,-19,186,6,8,17,-356,-13,206,4,6,11,-57,-1,11,0,-5,5,-189,-1,-58,1,1,2,-324,-3,117,1,6,2,-113,-8,117,0,0,-2,39,-10,-9,-1,0,-2,13,-12,-8,0,0,-2,29,-11,-5,0,0,-1,11,-6,-3,0,0,-1,8,7,3,-1,0,0,23,2,-27,0,-1,0,-1,-6,10,0,0,0,-6,5,4,0,0,0,12,0,-19,0,0,0,-3,-1,8,0,0,0,-5,-3,-6,0,0,0,-3,4,9,0,0,0,5,-4,-15,tilt right
-33,-97,-117,-4457,-48,1445,-19,24,-54,-2275,-135,634,-15,-11,-51,-163,-92,-3,-8,-11,-41,-188,-124,5,-12,-9,-44,-33,-48,299,-4,14,-16,981,30,-114,-3,-7,-14,1200,83,-587,2,9,3,647,89,-106,1,9,7,831,138,-195,9,1,28,435,80,-61,10,2,30,155,0,38,10,-4,33,-104,-25,-3,8,-7,26,-422,-27,-19,8,-2,27,-576,-30,199,6,6,20,-266,-21,67,4,0,16,-122,-20,-1,3,-3,9,-184,3,53,3,3,9,-152,0,60,1,0,6,-112,-6,10,1,-1,1,-184,-11,31,0,1,1,-134,0,97,0,2,0,-7,-4,19,0,0,-2,-3,-4,-19,0,1,-2,0,1,19,0,1,-2,34,-4,-9,0,-1,-2,1,1,-32,0,2,0,0,-8,10,0,0,0,26,2,-10,0,0,0,7,-6,-4,-1,0,0,10,2,-11,tilt right
-45,-54,-140,-4871,42,1616,-19,39,-64,-2456,-91,770,-15,22,-48,-55,-62,28,-13,-14,-45,-129,-75,11,-12,-6,-45,-16,-32,323,-3,6,-14,993,-15,-64,-5,-18,-16,1082,56,-612,-1,-10,-7,360,63,-80,1,8,3,458,83,-107,5,6,16,320,53,-43,7,4,18,283,24,7,6,0,19,113,3,-72,5,0,20,-82,-9,19,3,2,18,-149,-4,68,3,0,19,-204,-1,21,2,3,17,-170,-4,97,3,2,17,-76,-17,-7,2,-2,12,-137,-13,24,3,1,13,-82,-15,28,3,-2,9,36,-18,-50,1,-6,6,-43,-8,-25,3,-3,6,-152,5,24,3,0,6,-131,16,2,2,1,4,-129,8,12,1,1,3,-155,7,23,1,3,1,-105,2,88,0,3,0,20,-9,16,0,-1,-2,13,-13,13,0,-1,-2,-8,-6,5,0,1,-1,22,-5,2,tilt right
-51,-31,-159,-4398,-98,1434,-25,48,-67,-643,-76,216,-25,-24,-72,-152,-23,36,-17,-2,-55,67,-7,-12,-15,0,-41,190,27,467,-3,7,-2,1318,53,-500,-2,-19,-2,853,60,-258,3,5,17,468,45,-114,6,1,29,226,26,0,7,-7,29,36,-15,-29,6,-3,27,-316,-25,-91,7,1,24,-407,-28,126,6,6,22,-239,-30,18,3,-2,13,-232,-14,38,4,7,14,-174,-7,66,2,-1,8,-91,-11,-8,2,-2,5,-179,-2,55,2,0,4,-140,-2,93,1,2,2,-49,-12,32,0,-4,-2,-37,-6,8,0,2,0,-35,0,21,0,0,0,29,-1,-9,0,0,0,-16,8,-3,0,1,0,7,5,-10,0,1,0,-27,4,8,0,0,0,0,-1,-27,0,0,0,-39,8,39,0,2,-1,4,-7,1,0,-1,-1,-8,1,-5,0,1,0,1,-3,10,tilt right
-47,-39,-150,-2144,-66,709,-26,3,-75,-985,-81,301,-20,-5,-57,-390,-80,92,-12,-9,-51,-131,-72,20,-12,-7,-40,-47,-45,148,-1,1,-15,429,-3,-124,-2,-3,-15,478,53,-161,1,7,0,574,70,-148,2,7,7,664,83,-201,6,10,11,615,75,-174,8,7,25,427,33,-3,8,1,31,318,-6,-79,10,-3,28,-152,-24,-41,7,-3,29,-366,-25,55,7,-4,28,-509,-20,195,4,-3,20,-349,-9,15,6,0,14,-435,-14,192,1,-2,7,-145,4,-29,1,1,3,-271,7,130,0,2,0,-28,-14,-39,0,2,-1,-102,-4,76,0,2,0,59,-2,-53,0,1,-1,-52,1,90,1,4,0,93,-1,-91,0,0,-1,-44,4,62,0,2,1,34,-3,-26,0,0,-1,-19,-2,33,0,1,-1,11,-3,-12,-1,-1,-1,-11,-7,21,0,0,-1,31,0,5,tilt right
-56,-21,-153,-2586,-112,731,-28,0,-79,-503,-116,104,-18,-16,-62,-162,-98,-3,-16,-8,-50,-89,-52,-23,-13,-4,-41,-19,-20,221,-3,2,-11,558,45,-235,0,4,-4,460,70,-149,1,9,3,503,94,-109,5,9,14,619,76,-139,6,-2,17,342,63,7,9,3,27,157,0,-40,7,-1,25,61,-11,7,6,-1,27,-140,-33,-90,5,-3,24,-350,-29,129,4,0,22,-252,-40,120,5,2,18,-146,-25,-43,3,-7,12,-230,-10,35,4,1,10,-289,-3,59,2,2,9,-113,-5,66,3,1,4,-141,5,38,1,0,2,-28,0,-30,1,1,1,-128,-2,105,1,4,1,25,1,-74,-1,-4,-3,-85,2,102,1,5,1,44,-10,-73,0,-4,-3,-17,5,51,0,2,0,11,2,-7,-1,-3,-1,5,4,-8,0,1,0,-23,3,20,0,0,-1,35,-1,-12,tilt right
-60,-28,-156,-1844,-80,605,-28,-3,-81,-802,-112,225,-24,-23,-73,-241,-136,27,-14,-11,-53,-178,-114,7,-14,-8,-47,-96,-44,123,-3,2,-16,339,21,-114,0,0,-13,385,79,-187,3,17,2,368,112,-46,1,10,1,646,148,-165,7,10,16,689,91,-141,8,0,19,437,56,-36,6,0,25,203,0,46,7,0,31,142,-17,-91,8,-5,33,-207,-55,-46,6,-7,28,-383,-41,131,7,0,29,-346,-61,161,5,-4,22,-200,-31,-25,4,-3,14,-361,-9,64,2,0,11,-259,7,73,3,4,6,-310,5,104,0,3,3,-49,2,-1,0,-1,0,-153,10,59,0,0,-1,-112,2,-13,0,4,-1,-7,-10,28,-1,0,-3,55,-6,-65,0,2,-2,-2,3,12,0,3,0,55,-7,22,0,0,0,96,-1,-100,0,-3,-2,-52,7,68,1,3,1,20,4,-18,tilt right
-49,-45,-146,-2758,-51,955,-30,-4,-85,-1663,-68,550,-22,5,-61,-205,-50,57,-17,-12,-52,-87,-29,4,-16,-5,-45,23,-7,142,-7,3,-13,645,13,0,-2,6,-3,1079,35,-494,0,-8,2,577,35,-177,3,8,11,465,35,-132,7,1,22,239,15,36,10,8,25,181,4,-148,7,-7,22,-117,-13,-21,9,9,27,-101,-21,-15,4,-8,20,-221,-13,97,8,5,22,-242,-12,57,4,-4,16,-164,-7,77,6,-1,13,-347,12,-3,2,-3,7,-299,3,149,4,5,7,-198,-2,135,0,-1,1,61,-4,-91,-1,-5,-3,-203,0,154,0,5,0,115,-19,-93,-1,-6,-4,-65,10,79,1,6,2,69,-8,-113,-1,-5,-4,-79,8,138,2,7,2,46,-5,-89,-1,-4,-1,-24,7,38,0,4,1,6,-4,-31,-1,-3,-2,-8,3,9,0,4,0,-26,-2,49,tilt right
-52,16,-149,-2878,-117,961,-23,17,-76,-456,-98,141,-20,-15,-71,-124,-92,19,-17,-9,-51,-20,-43,-34,-14,-5,-43,37,3,293,-4,-4,-12,699,38,-318,-2,0,-4,590,55,-176,1,4,8,472,70,-146,6,10,13,464,49,-103,6,0,17,265,16,37,9,4,24,104,-6,-115,8,-1,24,45,-17,-12,7,1,22,-172,-20,-57,6,-1,23,-213,-18,61,6,0,20,-245,-18,132,6,1,15,-233,-10,-127,3,-2,8,-378,0,195,4,5,9,-227,7,8,1,2,2,-180,0,132,2,6,3,-25,-3,73,0,-1,0,49,-4,-39,0,-2,-1,-38,2,90,0,-2,-1,36,-5,-27,1,-3,-1,-21,0,11,0,1,0,0,-3,-29,-1,0,0,-2,-1,12,0,1,0,-3,-6,-11,0,1,0,4,7,-8,0,1,0,-3,3,11,0,0,0,1,-2,7,tilt right
-49,-6,-152,-2888,-23,919,-24,8,-70,-358,-79,74,-19,-17,-64,-122,-68,-21,-13,-8,-52,-47,-29,-20,-12,-6,-38,5,-3,312,-3,1,-6,713,10,-345,-1,0,-6,533,47,-178,3,11,11,464,61,-82,3,5,16,406,49,-58,7,5,18,239,27,10,9,2,22,123,4,-74,8,-2,23,-95,-5,29,6,-2,22,-113,-24,-17,5,-3,21,-213,-17,89,6,1,21,-213,-16,40,3,-3,17,-201,2,19,3,-1,12,-328,0,40,2,3,7,-267,5,85,1,3,5,-169,-1,97,0,0,1,-30,-6,-22,0,-1,-1,-69,-5,84,0,2,-1,4,-8,-30,0,-1,-2,5,5,19,0,0,0,0,3,-18,0,0,-1,8,2,-8,0,2,0,3,-1,21,0,0,0,20,7,-28,0,0,0,-11,-6,14,0,0,-1,12,-2,-5,0,0,-1,-6,4,15,tilt right
-46,15,-151,-1512,-220,422,-28,-26,-89,-269,-110,-6,-24,-6,-70,-83,-43,-32,-18,-6,-48,20,12,-15,-15,-4,-38,49,19,169,-2,3,-1,632,58,-227,1,2,3,451,67,-87,7,6,18,439,45,-71,6,0,15,339,9,10,9,3,23,234,-3,-152,5,-9,20,-79,-4,28,5,5,25,-223,-19,13,4,-1,21,-250,-19,38,5,2,20,-305,-14,75,4,2,14,-260,-15,33,3,2,11,-218,-11,107,2,2,6,-139,-2,9,1,-1,2,-107,0,32,1,1,1,-58,-5,50,0,-1,0,-16,-2,-26,0,0,0,-20,-2,31,1,0,1,21,-6,-42,0,0,0,-37,-3,20,0,1,1,4,-4,9,0,0,0,-3,-1,-19,0,0,0,-18,-4,14,0,1,0,8,2,22,0,0,0,2,-1,6,1,0,0,11,1,9,0,-1,0,-8,3,8,tilt right
-54,-13,-151,-814,-184,133,-26,-22,-83,-207,-168,-58,-18,-8,-68,-52,-66,-59,-15,-1,-50,55,-9,-40,-11,6,-35,267,6,0,1,1,-2,630,57,-184,4,13,10,644,85,-139,6,1,20,471,65,-15,10,2,28,234,15,-25,9,-9,27,-65,2,26,8,0,29,-366,-19,41,6,-3,24,-432,-14,118,4,1,20,-352,-25,99,1,-4,13,-275,-9,48,3,3,11,-191,-4,75,1,0,3,-115,5,-36,0,0,1,-137,-2,25,0,1,2,-104,-2,55,1,6,1,-6,-2,-5,-1,0,-1,-9,-10,21,0,0,0,-1,-4,17,0,-1,-1,-5,-4,-3,0,1,-1,21,-2,5,-1,-2,-2,0,2,-18,0,1,0,5,3,0,0,0,0,22,0,-7,-1,0,0,13,0,-11,0,0,0,2,-1,5,0,0,0,6,-2,7,0,0,0,1,4,3,tilt right
-53,-61,-142,-3532,-158,1088,-23,23,-62,-1101,-186,247,-20,-27,-68,-216,-114,-36,-13,-6,-51,-78,-83,-52,-13,-4,-42,-19,-13,311,-3,10,-10,771,43,-243,-1,-2,-8,752,84,-276,3,14,7,529,88,-107,4,7,14,540,88,-55,5,-1,21,334,27,7,9,0,22,70,7,-19,6,-4,24,-103,-6,47,5,0,25,-228,-18,-35,3,-5,19,-419,-22,112,5,7,17,-272,-12,122,1,1,13,-85,-17,-30,2,-1,6,-211,-3,0,1,2,6,-117,-6,52,1,0,3,-80,3,17,1,1,2,-17,-2,-22,1,0,0,-37,-8,46,1,1,3,23,-4,-50,1,0,0,-31,2,52,1,3,2,12,-8,-10,0,-2,0,-16,-7,9,1,0,2,-23,6,21,0,-1,0,-21,-2,-17,0,0,0,-30,0,37,0,0,0,-6,3,-22,0,1,0,-14,11,7,tilt right
-49,-6,-152,-813,-223,199,-24,-19,-90,-262,-119,-9,-18,-12,-64,-60,-40,-20,-16,-5,-46,21,-16,-28,-11,-8,-38,15,-3,78,0,6,-2,405,44,-140,0,1,1,437,60,-77,4,5,11,302,43,-76,6,1,13,274,30,46,5,4,19,162,18,-67,4,-5,17,-49,8,-17,5,6,22,-129,-14,42,3,1,19,-39,-14,-22,5,0,17,-138,-22,48,5,4,16,-69,-26,-15,3,0,14,-67,-10,3,4,-2,12,-160,-7,-1,3,0,9,-166,-11,73,2,0,7,-135,3,41,2,0,5,-115,9,23,1,-1,3,-126,-4,76,1,1,1,-50,7,5,0,-2,0,-72,0,37,0,0,0,-61,-7,27,-1,0,-1,-32,-6,10,0,1,-2,-11,1,-10,-1,0,-2,10,0,4,0,1,-1,11,0,-8,0,1,0,43,-3,0,0,0,-1,22,3,-17,tilt right
-47,-35,-148,-3585,-154,1067,-21,28,-67,-271,-139,42,-13,-17,-58,-150,-103,-31,-13,-3,-52,9,-44,-50,-13,-2,-38,69,0,379,-3,11,-3,994,34,-455,0,-15,-5,452,79,-121,1,8,9,416,76,-90,5,0,18,251,50,34,9,1,19,119,13,-64,8,-2,18,-93,-5,20,3,4,18,-180,-19,45,2,3,15,-221,-7,52,2,5,15,-135,-8,51,2,1,13,-46,-9,20,1,-4,8,-102,3,1,4,1,10,-90,-9,36,3,0,7,36,-19,-20,2,-4,5,-70,-7,-38,2,0,5,-147,-4,50,3,3,5,-66,-4,5,1,0,2,-66,6,-29,0,1,1,-127,9,54,0,3,1,-45,-3,50,1,1,0,25,2,-16,0,-1,-1,-5,0,35,0,0,0,17,-2,-1,0,-2,0,-1,2,14,0,1,0,8,8,-24,-1,0,0,-13,-2,26,tilt right
-53,-27,-150,-465,-131,147,-30,-21,-88,-92,-65,-1,-19,-13,-59,-25,-24,-13,-16,-5,-44,51,-1,-27,-12,-1,-33,119,6,22,0,3,0,456,38,-152,3,3,7,275,40,-52,3,6,12,258,33,-49,6,0,15,142,16,17,6,0,16,24,5,-110,4,1,15,-215,0,98,6,9,18,8,-10,-32,4,2,13,27,-15,-38,3,0,14,-65,-18,31,3,2,15,-87,-10,58,5,0,12,-75,-12,-20,2,-5,8,-247,0,25,2,2,8,-248,-5,122,2,3,5,-111,3,59,1,0,1,-53,1,-18,0,0,1,-58,5,68,0,2,0,4,-6,-11,0,-2,0,-3,3,-7,0,0,0,-12,-1,9,0,0,0,6,-4,-20,0,1,0,-23,2,15,0,1,0,10,4,-12,0,1,0,-16,-3,19,1,0,0,24,0,-13,0,0,0,-3,2,27,tilt right
-50,-48,-156,-334,-124,18,-27,-10,-90,-32,-23,-26,-20,-10,-56,102,15,-31,-15,5,-36,397,19,-113,-9,-8,-27,297,18,-60,3,7,10,285,39,-66,5,3,17,299,19,-7,7,3,18,128,-8,-121,7,-3,18,-68,-8,-4,5,5,17,-158,-15,78,4,3,16,-99,-18,-31,3,0,15,-194,-20,101,2,2,13,-90,-4,-45,3,-2,9,-222,-5,108,3,4,10,-95,-3,45,1,-3,4,-107,4,34,1,1,4,-95,10,7,2,-1,2,-93,8,55,0,1,1,-51,-3,-3,0,0,0,-38,0,12,0,2,0,-26,-1,0,0,0,0,-6,-2,10,0,0,-1,-34,0,12,0,1,0,-1,0,-1,0,0,-1,19,3,-2,0,1,0,5,2,4,0,-1,-1,17,4,-9,-1,0,0,22,-4,11,0,-1,0,29,2,-39,0,0,0,-32,0,36,tilt right
-50,-50,-140,-373,-99,-17,-30,-19,-92,-91,-62,-26,-17,-15,-54,-3,-4,-10,-15,-6,-40,66,12,-23,-10,-5,-31,170,12,-45,1,5,0,357,28,-80,4,1,14,336,38,-66,3,3,10,282,14,-80,6,0,14,122,-12,-56,5,3,17,-46,-11,0,4,5,16,-119,-7,0,5,7,14,-109,-19,-14,4,4,15,-87,-16,54,4,3,14,-57,-14,60,3,0,10,-53,-7,2,4,0,12,-87,-4,31,2,-3,8,-137,2,18,3,1,7,-152,2,44,1,2,5,-28,16,27,2,-1,5,-45,9,9,0,-1,2,-53,4,27,1,0,3,-11,0,7,1,-1,2,-7,1,-42,0,-2,1,-87,0,66,1,3,3,-17,-11,-1,0,-1,1,-18,-8,5,0,1,0,-40,-6,0,0,0,0,-15,2,29,1,1,0,8,-2,8,0,0,0,5,7,-3,tilt right
-46,-18,-155,-2975,-90,958,-25,14,-72,-194,-63,89,-19,-11,-59,-90,-47,15,-16,-8,-47,24,-17,-21,-13,-5,-35,38,4,341,-1,9,-1,845,30,-396,0,-10,-2,429,37,-126,3,3,10,303,52,-105,7,8,19,315,17,12,7,0,18,183,-2,-111,6,-6,19,-136,-5,-5,6,7,22,-162,-19,82,5,1,18,-82,-27,-50,3,-3,12,-281,-8,53,4,7,14,-116,-6,87,3,0,9,-37,-7,-23,3,-3,6,-186,5,22,3,2,8,-139,1,116,2,0,5,-22,0,-11,1,-3,2,-100,-1,24,1,1,3,-52,0,46,0,0,3,5,-8,-12,0,-1,1,-44,0,5,0,0,1,-53,-1,22,0,1,0,-14,5,7,0,-1,0,-38,-7,-12,0,1,0,-27,3,39,0,0,-1,18,-2,11,0,0,-1,6,4,-8,0,0,-1,1,-1,-7,tilt right
-51,-29,-147,-2604,-104,861,-27,1,-76,-351,-92,94,-18,-22,-62,-150,-68,-16,-14,-2,-50,-35,-30,-4,-13,-4,-37,18,3,300,-3,4,-8,584,36,-268,0,-5,-4,346,58,-129,1,8,5,407,64,-43,1,-6,10,267,48,-50,5,0,13,189,16,-21,5,0,17,111,-5,-45,5,3,16,-63,-14,-40,3,5,16,-178,-17,24,4,11,19,32,-24,-40,2,0,12,-34,-19,-5,4,2,13,-70,-12,17,3,2,12,-25,-1,57,5,-2,12,-53,-4,-68,4,-3,8,-215,-2,95,4,4,11,-94,-1,52,2,-1,6,-30,0,-2,2,-3,5,-95,-11,27,1,0,5,-93,3,59,1,0,3,-51,-2,-4,1,0,1,-82,1,18,0,1,1,-69,0,36,0,1,0,-21,7,20,0,0,0,16,-11,-13,0,-1,0,-13,3,4,0,0,0,9,2,-8,tilt right
-47,-60,-160,-3249,-184,1020,-28,23,-76,-305,-67,90,-18,-20,-56,-137,-60,7,-15,-6,-52,-15,-32,-21,-12,-7,-39,14,-1,358,-2,13,-2,824,31,-391,1,-13,-5,464,35,-129,2,9,4,365,44,-103,4,1,13,267,49,-8,5,3,17,163,10,-36,6,-2,16,-25,12,-25,5,4,20,-161,0,31,3,1,15,-129,-10,7,4,3,18,-130,-28,50,4,2,12,-92,-3,31,2,0,11,-92,-9,5,2,0,9,-147,-9,44,2,0,8,-123,-2,37,2,0,5,-116,-3,43,1,0,5,-46,-11,11,0,-1,2,-39,0,17,0,-1,1,-52,4,1,0,1,1,-20,4,17,0,1,1,-13,3,-19,0,0,0,-32,2,11,1,1,0,-18,-2,25,0,0,2,46,-8,-32,0,-2,0,-19,0,24,0,0,0,0,2,-7,0,0,1,-14,0,5,tilt right
-46,-9,-153,-475,-50,207,-28,-19,-84,-115,-37,37,-19,-11,-59,-12,-19,8,-13,-9,-44,44,11,-10,-10,1,-32,204,6,8,-2,-3,0,447,27,-145,2,2,7,273,39,-61,4,6,15,239,37,-19,5,4,17,179,6,-62,6,0,19,39,-6,-73,6,2,19,-130,-14,70,5,4,19,-62,-32,-5,3,-2,14,-103,-30,30,3,1,14,-145,-15,-5,1,0,11,-165,1,41,5,2,11,-134,0,25,2,-2,6,-159,13,35,3,2,8,-134,0,66,2,0,4,-64,-5,31,1,0,1,-89,-2,-11,0,0,0,-81,0,67,0,2,0,0,-6,12,0,0,-2,-1,0,0,0,0,0,1,16,-1,0,-2,-1,-2,-1,-4,0,0,0,-25,-4,-5,0,1,0,4,5,-4,-1,1,-1,3,1,-5,0,1,0,0,-12,11,0,2,0,20,7,-18,tilt right
-50,8,-148,-719,-133,187,-18,-26,-83,-233,-84,-1,-18,-10,-58,-48,-61,-13,-16,-4,-42,50,-3,-27,-10,2,-32,225,7,14,2,-6,1,469,40,-144,1,7,8,355,45,-54,6,7,14,330,42,-38,8,1,18,181,6,-42,8,1,23,135,-26,-72,4,-2,17,-98,-28,23,5,3,22,-161,-33,-12,3,0,21,-80,-18,84,4,-2,15,-173,-9,-63,4,0,14,-282,8,63,4,3,14,-128,5,129,3,-4,7,-132,20,-59,3,-2,4,-227,15,146,2,1,4,-144,7,57,0,0,0,-74,6,-16,0,1,0,-110,12,97,0,3,-1,15,-6,-55,0,0,-1,-12,-6,84,0,3,0,53,-4,-38,-1,-4,-3,-31,6,-15,1,4,0,-2,-8,0,-1,0,-1,18,1,-6,0,2,-1,19,1,7,-1,0,0,45,-1,-15,0,2,0,24,-1,-16,tilt right
-52,-2,-150,-2167,-11,675,-29,-2,-74,-236,-53,79,-21,-19,-60,-118,-49,-6,-16,-15,-45,-78,-64,-19,-12,-6,-41,-35,-26,211,0,-6,-9,457,8,-218,0,4,-7,311,21,-121,1,4,2,462,49,-88,4,11,9,440,70,-98,4,5,17,478,48,-26,4,0,19,200,15,-64,7,-2,24,-14,9,-15,6,2,24,-230,-20,67,6,0,21,-247,-18,-38,5,0,19,-395,-25,152,3,7,17,-190,-25,35,1,0,8,-151,-12,55,1,1,6,-147,-3,14,0,1,3,-131,0,68,0,0,2,-50,1,32,1,0,0,-31,1,-9,0,-2,0,-64,-1,19,1,3,1,-14,-2,-2,0,-1,0,7,-7,-8,0,1,0,-1,-4,-8,0,0,0,8,-9,-2,0,0,0,-2,0,1,0,0,0,10,-5,-5,0,0,0,-12,2,18,0,0,0,6,4,-15,tilt right
-50,-37,-143,-346,-101,-93,-29,-17,-83,-213,-151,-42,-19,-15,-63,-92,-40,9,-14,-7,-46,3,11,-25,-11,-4,-35,87,16,-52,1,5,-1,382,31,-84,4,1,5,384,65,-22,5,9,14,388,26,-119,6,4,17,311,3,-27,6,2,20,90,-2,-52,4,1,21,-91,-1,31,5,3,21,-111,-7,5,5,-2,19,-194,-3,10,5,0,16,-258,-9,124,4,0,13,-161,-13,10,3,0,8,-214,-11,42,3,2,6,-182,1,30,1,1,4,-151,-5,73,0,3,2,-50,-8,32,0,0,0,-24,-5,25,0,0,0,-2,1,2,-1,0,0,-15,-2,23,0,0,0,13,7,-17,0,-1,0,-6,5,23,0,0,0,7,6,-30,0,0,0,-14,-2,18,0,0,0,0,2,-12,0,0,0,-5,-4,4,0,0,0,-7,-5,-14,1,1,0,3,-1,20,tilt right
-54,-19,-147,-4072,-55,1301,-24,22,-57,-10,-42,20,-23,-9,-52,-77,-45,-7,-17,-11,-47,-4,-14,10,-12,-6,-32,46,11,509,0,1,0,988,20,-553,-1,-17,-6,293,27,-120,4,1,7,283,34,-39,5,8,19,313,15,-65,5,2,16,271,-9,-119,6,1,17,44,-9,-79,6,9,24,6,-13,34,6,0,19,-96,-7,-8,8,2,21,-109,-15,-21,4,-4,15,-252,1,128,5,0,17,-227,5,-5,4,-3,9,-271,6,163,2,2,9,-175,0,6,0,-2,2,-193,12,107,1,4,4,-92,0,61,0,0,0,9,-2,14,-1,-1,-1,-32,-7,31,0,1,0,1,-4,-23,0,0,0,23,-9,-8,0,1,0,15,-14,-6,0,1,0,15,-20,-38,1,1,0,27,-4,33,0,-1,1,51,-2,-40,-1,-1,1,0,-6,49,0,-2,0,4,-1,-19,tilt right
-47,27,-152,-597,-153,91,-22,-14,-84,-284,-44,30,-21,3,-62,-61,34,-7,-13,0,-42,-15,26,-10,-10,3,-35,46,26,10,1,-3,0,390,64,-99,1,10,6,495,28,-154,7,0,15,568,-9,-188,3,-1,13,378,1,-43,9,2,26,237,-4,-135,6,-6,22,-30,-15,20,7,-4,24,-305,1,-59,9,1,26,-192,-22,86,6,-5,17,-413,-18,115,5,1,17,-272,-22,59,3,0,9,-290,-8,231,3,3,6,-128,-1,-206,-1,-3,-3,-339,25,298,2,8,4,5,10,-43,0,-6,-6,-3,12,23,2,5,0,34,5,-8,0,0,-1,56,0,-52,1,2,0,-15,2,37,1,0,1,52,-2,-27,0,1,0,-22,-8,25,1,0,0,15,-4,-16,0,-1,-1,-22,3,46,0,0,0,12,-6,-1,0,0,-1,-25,2,11,0,0,0,9,6,-4,tilt right
-51,-11,-154,-3943,-14,1230,-27,21,-73,-179,-51,-4,-22,-16,-63,-170,-75,1,-14,-2,-48,-54,-29,-22,-13,-1,-40,5,-7,488,-2,0,-6,858,1,-503,0,-6,-8,293,38,-40,4,7,4,343,55,-91,3,4,10,418,22,-81,3,-4,11,258,14,-27,9,8,21,203,0,-146,5,-3,18,50,-22,32,6,6,23,-63,-12,-71,5,0,20,-130,-13,86,8,2,22,-160,-14,32,4,-5,14,-86,-16,1,5,-4,14,-256,-2,138,5,-1,12,-106,2,-49,3,-5,8,-137,17,110,5,3,9,-26,-2,-119,1,-6,3,-86,10,136,3,0,7,-78,9,-13,1,-4,2,-42,5,17,0,-1,1,-157,0,73,0,-1,0,-52,9,-36,0,1,0,-123,5,127,1,4,0,90,-2,-86,-1,-1,-1,-47,-1,76,1,4,2,67,-6,-57,0,-1,-1,-26,-3,37,tilt right
-49,11,-160,-4521,-6,1224,-34,42,-83,-138,-2,-38,-27,6,-66,-109,-20,0,-20,2,-59,-6,16,-7,-14,2,-41,60,25,498,-4,0,-8,1026,21,-546,0,-15,-5,306,21,-23,5,-3,5,376,16,-96,5,0,17,331,-14,-86,3,-1,13,200,-20,-69,5,3,19,100,-18,-57,4,0,18,-102,-14,-8,3,6,19,-218,2,14,3,2,15,-195,9,76,4,5,16,-159,-1,49,3,-1,10,-44,3,23,4,0,9,-78,6,67,3,0,10,79,0,-52,2,-6,5,-71,10,67,2,-2,8,-39,13,-50,3,-1,8,-1,16,61,2,-4,6,-71,11,-66,3,0,6,-100,-2,101,2,-1,5,-21,-21,48,2,-2,4,-100,-11,-78,3,0,3,-97,-18,130,2,1,4,-59,-16,-33,1,0,2,-7,-11,-13,1,-1,0,-117,13,71,1,4,2,26,-8,-74,tilt right
-65,-48,-144,-4071,164,1284,-38,-8,-101,-2650,-23,849,-27,35,-64,-415,-45,189,-24,-19,-61,-181,-25,79,-23,-10,-52,-10,4,181,-11,1,-20,871,-1,45,-4,2,-4,1382,54,-593,-1,-28,-2,712,59,-238,1,15,13,927,57,-361,8,-4,20,417,24,-91,13,5,31,208,-11,-116,8,-6,26,-42,-38,23,7,-3,24,-393,-25,-200,13,2,29,-515,-44,167,7,4,22,-158,-20,53,4,-6,9,-330,12,7,8,7,14,-295,5,186,7,5,9,-70,4,-32,3,-5,0,-304,20,51,4,7,4,-232,0,245,1,6,1,59,-25,1,0,-3,-2,35,-13,10,-1,0,0,11,-17,51,0,0,-2,52,-20,-23,0,-2,-2,-13,-5,26,1,0,-1,4,-1,-1,0,0,-2,6,5,-8,1,1,0,18,16,7,-1,-1,0,6,13,0,0,0,0,20,7,0,tilt right
-47,-6,-159,-4671,-42,1506,-25,38,-86,-1743,-31,553,-24,-2,-60,-76,-7,53,-19,0,-51,-16,2,15,-16,-7,-41,23,9,396,-4,3,-5,1151,16,-252,-2,-19,-2,1097,29,-494,5,8,11,671,11,-230,5,-3,17,550,-1,-87,8,0,24,120,-22,-91,9,-1,26,-158,-15,68,8,5,26,-330,-26,-24,5,-6,16,-607,-9,65,4,6,16,-495,-4,225,3,9,10,-138,10,61,1,2,4,-21,2,-21,0,0,3,-36,1,42,0,0,2,-19,-1,2,2,-1,1,-48,-3,25,1,0,1,-2,-1,11,0,-1,0,-32,0,0,0,1,2,6,1,11,1,1,2,59,-1,-27,0,-3,0,-2,3,7,1,0,1,-41,3,28,0,0,1,0,4,-9,1,0,0,-60,11,-11,0,-1,0,-51,0,50,0,4,1,0,0,14,0,0,0,41,-3,-30,tilt right
-54,-40,-151,-3124,-97,846,-27,22,-77,-299,-53,20,-18,-19,-57,-162,-37,0,-16,-8,-51,-25,-27,-26,-12,-7,-36,-6,0,323,0,0,-8,655,22,-335,1,-10,-5,270,25,-42,0,6,-1,385,52,-95,4,9,15,392,55,-31,3,8,12,558,28,-96,4,1,21,279,13,-70,5,1,28,128,0,-19,6,-1,27,-112,-22,62,5,-4,23,-283,-32,-65,5,-1,24,-389,-30,143,3,1,17,-255,-11,39,0,-3,10,-282,1,52,2,5,12,-200,-1,101,1,0,5,-110,2,-39,1,0,2,-191,9,75,1,4,2,-60,-1,13,0,0,0,-13,-4,6,0,0,-1,-1,-10,-4,0,0,-1,12,-2,-7,0,0,-2,8,-5,-13,0,0,-1,-6,0,-10,0,1,0,11,2,6,0,0,0,17,14,-6,0,0,-1,7,2,-5,0,0,0,13,0,16,tilt right
-46,-42,-144,-2706,-147,823,-15,-3,-67,-666,-209,85,-11,-17,-70,-282,-178,-17,-16,-9,-46,-74,-101,-56,-14,-3,-44,13,-12,241,0,4,-13,610,36,-268,-1,4,-9,597,107,-122,2,10,11,623,130,-120,8,9,7,605,120,-120,12,0,26,416,25,61,7,0,27,175,-4,-51,7,-4,28,-167,-26,56,4,-2,25,-300,-29,23,4,-4,26,-503,-39,82,2,1,16,-388,-16,127,3,2,12,-236,-4,52,1,2,7,-119,5,-52,0,1,4,-130,8,51,1,2,3,-53,0,-9,0,1,1,-49,4,23,0,1,1,-8,-1,-18,0,-1,0,-41,-3,15,1,2,0,-23,-3,26,0,0,0,6,2,-5,0,0,-1,3,-2,7,0,0,0,3,7,6,0,0,0,-2,3,2,0,0,0,1,5,12,0,0,0,1,-3,-8,0,0,0,3,-2,15,tilt right
-53,-74,-132,-3849,17,1226,-26,34,-63,-1484,-50,367,-20,-30,-54,-178,-103,-71,-13,-4,-52,-22,-52,-59,-9,-4,-37,41,-15,337,-1,18,-6,1074,-3,-226,0,-18,-3,1006,18,-439,5,18,5,626,74,-151,6,-2,22,383,55,53,7,1,22,129,35,-72,10,-1,25,-68,10,8,8,2,24,-200,7,-50,7,-4,23,-456,-4,125,5,7,20,-311,-18,157,3,-1,14,-133,-15,11,1,-2,7,-264,-7,40,2,2,5,-197,-9,106,0,3,4,-85,-6,21,0,-1,0,-66,2,24,0,3,0,-30,3,40,0,0,-1,22,3,-32,0,0,0,-11,5,23,0,0,-1,20,2,-15,0,0,0,10,11,-5,0,0,0,0,-8,1,0,0,0,2,-5,-18,0,0,0,2,-1,10,-1,0,0,4,0,-3,0,0,0,4,-5,9,0,0,0,-6,9,3,tilt right
-67,-4,-167,1793,346,-286,-26,4,-64,1431,204,-294,-21,-2,-38,1027,143,-245,-13,-9,-19,571,80,-143,-8,-8,-9,240,42,-52,7,-5,31,-178,-48,-38,5,-7,26,-445,-65,-4,9,-3,27,-557,-63,71,7,4,23,-408,-38,120,7,5,15,-229,-30,-13,3,6,10,-159,-23,15,3,4,6,-89,-19,45,4,1,1,3,-16,-30,4,0,-1,-68,-26,39,3,1,3,9,-25,23,3,-4,1,-25,-19,28,2,0,3,-17,-17,-17,0,0,1,-33,-25,63,0,0,2,15,-12,-3,0,-2,0,9,14,29,2,0,-1,-5,22,13,3,0,0,-29,21,-21,3,0,0,-36,17,43,3,0,1,-4,4,-36,0,0,0,-31,-8,19,1,2,1,11,-13,-10,0,0,-1,7,-14,10,0,1,1,17,-13,8,0,0,0,9,-9,2,0,0,0,10,-4,11,tilt right
-57,-26,-158,-5172,133,1835,-24,66,-69,-1654,27,459,-26,-33,-73,-253,-28,42,-13,-7,-54,-107,-80,-1,-14,-2,-45,-90,-18,551,-2,4,-11,993,-47,-374,-4,-26,-14,682,-4,-312,4,25,3,389,30,-96,-1,8,4,503,59,-83,4,8,8,773,14,-127,3,-5,11,356,45,-26,12,12,32,498,2,-148,5,-12,24,208,-37,-16,8,-8,35,-141,-5,-231,9,-13,34,-642,5,329,11,6,33,-311,-23,-99,2,-14,11,-568,-5,104,6,7,18,-437,24,75,3,3,4,-330,12,133,3,9,5,-4,-8,9,0,-2,-1,-36,-3,79,1,1,1,70,-6,-46,0,-4,-2,-23,3,55,2,2,3,74,-6,-60,-1,-4,-2,-74,9,74,2,2,2,39,3,-54,0,-1,-2,-56,11,35,1,3,1,4,6,-23,1,0,-2,-53,8,47,2,4,2,19,0,-23,tilt right
-56,-9,-152,-3345,-68,1079,-30,-4,-99,-1669,-69,452,-21,6,-61,-95,-73,-15,-18,-1,-60,-70,-30,-28,-13,0,-48,32,-5,237,-3,2,-14,804,13,-88,0,4,-1,1043,38,-466,2,-3,0,377,61,-98,4,3,14,421,35,-42,5,0,20,244,15,16,7,2,20,51,16,-112,7,2,23,-104,0,81,6,0,20,-152,-20,28,5,-1,18,-288,-8,78,4,4,17,-143,-6,100,2,-3,11,-121,-11,-18,1,-1,8,-185,-7,60,0,0,8,-40,9,51,1,-1,8,3,2,-44,0,-1,6,-22,-2,42,0,-2,6,-6,2,8,0,-2,6,-11,1,-30,0,-3,6,-19,-13,31,1,-1,6,-1,-1,-47,0,-5,5,21,-5,26,1,-2,5,-1,-3,-24,1,-3,4,5,-2,-19,2,-3,6,21,0,-4,0,-6,4,6,-4,-62,1,-6,3,-149,17,48,tilt right
-51,30,-146,-1993,-92,814,-31,18,-91,-1370,-84,485,-22,25,-68,-540,-90,143,-19,0,-62,-108,-63,-7,-14,2,-48,-58,-67,108,-5,1,-23,369,-39,-38,-1,0,-16,562,10,-226,0,-6,-12,406,54,-180,2,13,-1,323,64,-61,2,5,2,385,65,-14,4,3,8,291,64,-7,4,6,14,325,48,-8,3,4,19,295,22,-45,3,-2,21,101,1,-7,4,5,24,29,3,31,3,-4,24,26,-7,-30,3,-5,23,-160,-29,15,4,-6,21,-174,-27,32,4,-3,19,-185,-20,-11,2,-9,14,-191,-5,-10,4,1,14,-219,-2,54,4,0,13,2,-5,-58,2,-6,6,-213,16,46,4,0,8,-92,5,-70,3,-3,3,-122,12,35,6,5,2,-96,10,-124,3,2,0,-156,7,142,4,8,3,-4,-21,4,1,1,0,-18,-20,-22,2,6,0,-30,-22,121,tilt right
55,-11,146,4547,134,-2012,9,-127,45,1289,128,-490,28,-77,57,293,81,-93,21,-46,52,18,26,7,17,-46,41,-52,10,-609,6,-38,12,-961,-28,479,14,12,23,-592,-75,297,-1,8,5,-184,-68,124,-1,-1,-3,-17,-34,-28,-1,8,-2,60,-18,-9,0,3,-3,-58,-22,65,-3,-3,-6,-166,15,63,-10,0,-24,-1100,-29,506,-10,44,-22,-1044,25,288,-15,53,-27,-570,1,160,-17,43,-32,-12,10,-363,-16,42,-36,199,11,497,-8,37,-17,1113,45,-510,-7,-7,-18,1044,-16,-400,-3,-15,-13,577,8,-266,-1,-6,-7,135,18,-56,0,0,1,52,0,-28,1,0,0,0,5,-4,0,3,1,17,5,0,0,0,0,-3,-4,13,0,-1,0,-8,-3,18,-1,0,-1,-14,9,3,0,-1,0,6,12,11,-1,-2,-1,-27,6,20,-1,0,0,-21,10,-5,tilt right
-56,-30,-153,-1246,-651,515,-26,-34,-71,-583,-377,357,-18,-13,-59,-143,-139,106,-11,-12,-43,66,-42,22,-13,-6,-34,159,22,56,-1,2,2,582,169,-40,-1,6,1,791,220,-351,3,-2,17,479,164,-246,3,6,20,271,85,-137,8,0,22,1,12,-8,10,3,21,-139,-28,-170,9,3,21,-315,-60,50,8,6,18,-259,-89,42,8,4,17,-156,-54,107,7,1,15,-116,-35,58,6,0,12,-173,-13,-28,7,3,11,-194,-11,146,4,3,5,-130,3,-11,2,0,3,-120,-4,93,2,2,1,-26,-5,46,1,0,0,-1,-2,2,0,-1,0,-14,-7,63,0,-1,0,-5,0,-33,0,0,0,-20,2,35,0,0,1,-7,0,19,0,0,0,-1,4,-15,0,0,0,-30,1,26,1,0,0,11,0,-22,0,0,0,-10,0,20,0,1,0,2,-3,0,tilt right
-53,58,-135,-2157,-352,595,-22,-46,-85,-517,-277,159,-25,-8,-76,-229,-221,144,-13,-6,-51,-74,-70,73,-13,-4,-43,75,7,173,-3,-14,-11,634,107,-237,-4,17,-1,595,177,-88,4,0,16,578,215,-190,2,0,17,443,147,-219,6,2,25,196,57,-109,9,2,24,115,8,-57,10,0,26,-82,-55,-87,9,0,22,-150,-81,-39,10,1,22,-230,-90,124,9,0,20,-146,-52,15,4,-7,17,-333,-31,175,7,1,15,-288,-6,26,4,1,13,-293,0,201,1,3,8,-100,-2,-60,1,-3,2,-136,-7,217,4,6,2,-17,-11,-74,0,-3,-3,-64,3,44,0,4,-2,-78,1,-15,0,0,-4,-15,1,30,-1,3,-2,-21,-3,-7,0,1,-1,77,-1,-18,-1,0,0,27,-4,65,0,-1,0,84,2,-89,0,-2,-1,-67,9,69,0,3,0,58,9,-58,tilt right
-64,18,-156,-1977,-288,379,-29,-44,-91,-531,-256,53,-24,-10,-74,-228,-148,2,-14,-4,-57,-82,-58,21,-14,-3,-45,56,14,141,-2,-2,-7,630,72,-111,-1,13,1,628,127,-108,3,3,18,626,111,-92,2,-3,21,538,69,-165,10,-1,32,238,-4,-78,9,-7,28,102,-26,-94,10,-5,29,-283,-28,-48,11,-2,24,-251,-32,-118,11,-4,26,-385,-16,128,8,0,19,-261,-11,25,10,-2,17,-336,16,172,6,7,13,-213,2,-31,3,-1,7,-272,5,188,1,6,4,-162,-5,94,-1,0,0,-47,-8,34,-1,2,-3,-77,-15,104,0,-1,-2,82,-1,-50,-1,0,-3,-12,-1,49,-1,1,-1,53,-1,-81,0,-1,-2,-5,6,66,0,0,0,55,-3,-70,0,-2,0,24,-5,11,1,0,1,-15,3,-18,0,0,0,10,-3,-12,0,0,0,-12,-5,32,tilt right
-45,-16,-155,-6730,75,2173,-36,51,-76,-1320,-90,311,-26,-12,-67,-343,-130,53,-17,-3,-62,-145,-146,53,-14,-2,-51,-42,-53,787,-5,0,-21,1391,-14,-653,-1,-14,-15,804,44,-266,0,9,-2,650,107,-98,1,6,13,691,160,-154,6,4,25,559,85,-205,7,8,32,392,14,-132,12,-7,30,121,6,-46,16,3,37,-190,-38,-94,11,-6,31,-336,-41,50,10,-1,25,-496,-27,154,7,-6,21,-421,-1,85,4,2,16,-436,-9,171,0,-3,8,-227,11,9,0,3,4,-298,0,176,-1,1,0,16,-4,-39,-1,0,-1,-56,-16,104,0,0,-1,86,-4,-96,0,-1,-3,-55,2,109,0,3,0,98,-3,-113,0,-1,-1,-56,3,100,0,4,0,37,2,-88,0,-1,-1,-47,1,81,0,3,1,31,-4,-81,0,-3,-1,-23,0,42,0,3,-1,17,-1,-14,tilt right
-61,-29,-165,-8486,-221,2170,-32,52,-119,-199,-118,122,-18,-30,-65,-322,-185,54,-19,-9,-66,-48,-55,-5,-16,-2,-48,63,1,797,-6,6,-14,1851,63,-810,-3,-18,5,473,82,-72,-2,17,4,739,140,-180,4,4,18,518,91,-167,7,-1,24,204,18,5,10,0,27,131,-2,-43,9,-4,25,-184,-24,-111,8,1,23,-349,-35,-30,6,0,24,-326,-39,184,5,5,18,-171,-18,-25,6,-1,15,-156,-11,56,5,0,14,-201,-7,64,4,2,10,-95,9,15,3,0,8,-112,0,89,2,0,5,-68,3,-53,1,-1,3,-97,3,138,2,1,2,-16,-4,-60,0,-4,-1,-74,-2,53,0,1,0,-73,3,41,0,-2,0,-7,-2,-14,0,1,0,-44,-8,56,0,0,0,38,-3,-45,0,1,0,-31,-1,47,0,1,0,53,-15,-40,-1,0,-1,-17,-3,33,tilt right
-41,-44,-145,-5603,-12,1609,-34,23,-82,-1742,-195,469,-14,-34,-66,-473,-256,229,-26,-2,-65,-308,-183,156,-14,-4,-53,-75,-55,513,-10,5,-24,1211,23,-423,-4,-10,-16,1023,136,-310,-5,20,-2,900,251,-245,8,-4,14,912,279,-363,8,-1,29,535,153,-245,12,3,32,234,42,-102,14,-5,35,-79,-10,-16,13,2,32,-476,-92,-60,13,7,30,-518,-130,197,7,5,20,-399,-94,156,7,2,18,-279,-55,95,5,8,11,-241,-45,129,1,1,7,-116,-5,34,0,0,4,-151,0,101,0,1,1,-38,-2,22,0,-2,0,-38,0,70,0,0,-1,-4,-4,-36,0,-3,-2,-25,1,63,0,1,-1,15,-2,-48,0,0,-1,-16,0,9,0,0,0,-4,-12,0,0,0,0,7,-1,4,0,1,1,-2,-1,-18,0,-1,0,0,6,6,0,0,0,0,-5,23,tilt right
-20,-123,-103,-4948,204,2017,-18,-5,-65,-3223,-117,846,-27,4,-68,-337,-171,181,-16,-18,-48,-285,-152,122,-16,-7,-51,-61,-50,502,-13,19,-26,1065,-31,-236,-10,1,-17,1573,75,-598,0,-6,3,644,167,-154,0,8,6,762,191,-309,8,3,27,578,89,-209,10,1,25,195,21,-84,12,2,30,-62,-15,-2,10,1,26,-261,-53,-39,9,6,25,-410,-71,23,6,4,21,-368,-40,172,5,2,17,-200,-39,67,4,-1,13,-217,-8,47,4,3,11,-133,-4,67,3,0,7,-119,3,5,1,1,3,-134,1,37,1,1,3,-69,9,122,0,0,0,-8,-2,-30,0,-2,-1,-42,-4,39,0,0,0,-10,2,-14,0,-1,-1,-8,2,21,0,0,0,-24,1,-4,-1,0,0,19,1,-10,0,0,0,-16,9,16,0,0,0,7,-3,-20,0,0,0,-12,0,31,tilt right
-48,-49,-155,-4885,112,1559,-37,30,-82,-1147,-90,414,-24,-34,-66,-376,-112,135,-20,-13,-57,-150,-95,30,-14,-10,-46,-39,-17,465,-6,3,-14,1038,-3,-392,-3,-10,-10,718,63,-238,0,16,1,604,125,-189,4,10,12,627,138,-127,4,7,18,611,77,-166,6,1,23,358,17,-103,12,-4,31,89,8,-48,11,0,29,-122,-44,-18,9,-3,27,-348,-65,-47,7,-3,25,-590,-54,174,8,7,22,-397,-32,89,3,2,12,-370,-30,113,2,5,10,-241,-8,34,1,3,5,-167,5,158,1,7,1,33,-7,-25,-1,-3,0,-28,-2,56,1,1,-1,37,-9,-27,0,-3,-1,-4,-4,30,0,1,0,11,-4,-10,0,-2,0,-7,-1,1,1,2,0,11,-7,-5,0,-2,0,-4,5,0,0,1,0,-5,-2,-7,0,-1,0,3,5,-2,0,0,0,6,3,8,tilt right
-40,-76,-135,-5202,1,1534,-24,14,-76,-1503,-158,429,-20,-37,-64,-464,-202,211,-19,-10,-50,-255,-144,99,-13,-6,-48,-33,-30,447,-8,9,-19,1102,14,-435,-6,-5,-10,898,91,-242,0,14,1,695,179,-207,6,7,9,640,184,-240,5,2,21,467,85,-155,9,-1,25,220,18,-44,13,1,28,50,-2,-46,8,0,27,-113,-47,-7,9,1,26,-240,-77,-3,7,-1,25,-287,-56,171,8,0,22,-330,-17,53,5,0,16,-352,-9,93,5,4,12,-342,5,118,2,1,8,-197,17,15,1,3,2,-158,5,143,0,6,1,32,-12,-38,-1,-3,-2,-5,-18,49,0,1,0,12,-11,-28,0,-1,-2,5,-7,6,0,1,0,-12,-5,21,0,-1,-1,15,-3,-21,0,1,0,-4,-4,10,0,0,-1,19,-6,-26,0,-1,0,-13,-2,11,0,0,0,19,4,-17,tilt right
-65,23,-146,-4837,-132,1422,-35,3,-84,-619,-125,231,-25,-19,-57,-353,-167,61,-19,-6,-57,-123,-108,32,-14,-3,-46,-9,-49,498,-5,-3,-15,1116,37,-438,-4,-1,-7,606,89,-178,1,6,0,677,148,-148,4,-1,16,561,128,-123,5,-2,23,308,83,-126,11,0,29,232,2,-65,12,-2,28,-40,-38,-103,9,4,29,-210,-59,-73,8,2,27,-290,-44,135,8,3,24,-279,-37,16,7,0,18,-314,-3,71,6,1,17,-273,0,64,5,0,10,-205,5,57,4,2,6,-141,0,108,2,0,5,-41,1,15,0,-2,2,-55,-19,48,0,0,0,-60,-1,41,0,0,0,-42,4,11,0,0,0,-50,1,55,0,0,-1,37,-1,-14,0,-1,0,-25,9,20,1,0,0,27,-5,-36,0,-1,0,-22,2,39,0,0,0,20,1,-39,0,0,0,-27,-2,33,tilt right
-51,-53,-152,-5624,146,1712,-32,39,-81,-1409,-36,404,-19,-30,-65,-277,-101,58,-21,-7,-55,-139,-130,-5,-14,-4,-49,-15,-30,500,-4,8,-17,1157,-28,-411,-4,-18,-15,628,27,-243,-6,20,-4,385,75,-73,2,5,2,465,138,-64,2,5,13,407,85,-58,3,1,17,462,33,-53,6,-2,20,219,14,-53,9,0,25,68,0,-44,7,1,27,-79,-24,-44,5,-3,24,-214,-51,-92,5,1,24,-350,-26,113,6,4,21,-140,-18,-17,4,-4,14,-311,-3,-31,5,4,13,-216,-1,73,4,2,6,-169,7,46,4,2,4,-151,-3,-23,3,3,2,-86,-10,125,1,3,1,29,0,-21,1,-2,0,-32,0,45,1,1,1,5,-6,55,1,-1,0,25,5,-24,1,-2,0,-30,10,50,1,1,1,-1,-5,-6,0,-1,1,-2,-8,9,1,0,0,-10,-5,16,tilt right
-58,44,-138,-5659,23,1792,-34,22,-89,-544,-30,248,-22,-32,-62,-367,-147,148,-22,-9,-57,-110,-85,20,-16,-6,-45,-28,-2,629,-8,-10,-20,1217,41,-616,-7,-8,-6,464,49,-60,-4,16,0,591,142,-200,1,2,13,443,113,-72,3,6,17,477,34,-135,8,-3,24,261,-17,-88,11,-1,25,118,-27,-86,8,-1,25,-15,-44,-81,9,1,25,-169,-51,-74,7,-2,25,-290,-19,48,6,2,22,-342,-16,65,7,5,20,-211,5,-31,7,0,14,-311,13,128,7,6,12,-70,19,-49,6,-1,8,-51,-4,158,7,4,8,40,-15,-77,3,-7,4,-53,-12,123,3,-1,4,-142,-11,64,1,-1,3,-89,-14,39,0,-1,0,-154,1,142,0,1,0,-44,6,-83,0,-2,-3,-90,0,181,1,6,0,126,-12,-149,-2,-7,-4,3,9,42,0,3,0,17,-2,-28,tilt right
-36,-47,-144,-6154,144,2111,-33,49,-85,-2414,-72,619,-20,-5,-76,-174,-79,47,-18,-12,-58,-164,-109,11,-18,-6,-53,1,-41,581,-6,6,-22,1279,-35,-397,-2,-22,-16,1094,51,-476,-4,8,0,449,44,-62,-2,12,2,528,112,-70,5,7,17,434,70,-87,2,1,18,389,22,-100,6,0,22,150,-14,-45,8,-1,22,-56,4,16,10,0,26,-97,-27,-108,6,3,22,-104,-40,-84,6,-1,21,-276,-23,109,6,5,21,-166,-15,30,5,-3,15,-202,-2,25,3,0,13,-288,0,34,3,0,8,-282,9,134,2,4,6,-141,4,80,1,0,1,-48,1,2,0,0,0,-65,-3,97,0,0,0,42,0,-35,0,-2,-2,-50,0,41,0,2,0,22,-4,-29,-1,-2,-1,-25,2,37,0,2,0,20,-2,-60,0,0,0,-8,-3,46,0,1,1,38,1,-27,tilt right
-40,-33,-152,-4870,-80,1331,-32,22,-86,-1385,-118,387,-21,-18,-68,-339,-126,141,-20,-12,-57,-144,-97,67,-15,-11,-46,-56,-43,398,-7,-4,-18,997,7,-321,-1,-21,-13,616,56,-206,-2,0,-4,330,83,-103,2,2,4,402,89,-122,2,8,7,426,81,-152,5,12,15,534,57,-149,7,7,21,430,26,-99,10,10,26,208,1,-91,10,7,28,38,7,20,12,3,32,-78,-33,-101,10,-4,29,-307,-47,26,9,0,25,-335,-38,184,7,-2,21,-263,3,20,6,-4,16,-315,-13,89,3,-2,12,-288,0,63,2,-1,8,-260,4,101,1,4,6,-157,2,70,0,0,1,-89,-11,59,0,3,1,0,-14,5,0,-1,-1,-8,-3,33,0,3,0,20,-13,0,0,-3,-2,-9,-4,1,0,2,0,18,-4,-23,0,-2,-1,-11,5,19,0,1,0,1,-8,-20,tilt right
-34,-14,-157,-6732,85,2209,-33,55,-89,-1662,-4,394,-24,-19,-76,-316,-67,75,-19,-7,-61,-143,-81,46,-16,-10,-48,-58,-18,759,-8,-5,-19,1368,-4,-652,-1,-27,-13,736,26,-300,-1,13,0,428,52,-73,-1,6,6,489,90,-24,4,13,13,635,34,-265,5,1,19,472,2,-154,10,7,27,313,-38,-49,12,-2,28,38,-14,1,14,2,30,-159,-37,-104,10,-3,25,-370,-25,24,8,6,25,-392,-24,146,4,0,18,-250,17,88,4,-2,15,-216,6,99,4,-1,12,-136,12,-1,1,-4,9,-176,21,113,3,0,8,-70,10,-30,2,-3,4,-73,-5,89,2,1,4,-95,-1,5,1,-2,1,-54,-3,40,1,1,0,-79,-7,51,0,0,0,-18,5,-35,0,0,0,-88,11,106,0,2,0,48,4,-95,-2,-1,-1,-45,10,88,0,3,0,60,-3,-71,tilt right
-47,-36,-155,-4259,86,1337,-29,-3,-98,-2088,-3,490,-26,4,-75,-297,-34,75,-22,-12,-60,-183,-40,15,-19,-7,-53,-51,-16,325,-9,3,-19,890,-21,-207,-5,3,-8,1032,-3,-312,-2,0,-1,525,38,-53,3,6,7,470,63,-66,5,6,17,461,40,-102,7,0,22,340,10,-76,7,-3,21,93,8,-81,10,-2,28,-115,-19,-65,7,2,23,-186,-30,-55,8,1,24,-329,-15,4,6,5,18,-310,4,56,5,1,16,-260,1,102,4,2,10,-160,8,48,3,0,9,-122,-1,73,2,1,5,-72,-8,17,1,0,2,-81,-15,72,1,1,2,-21,-2,-9,0,-1,0,-83,-3,51,0,1,0,-6,4,-11,0,-2,0,-26,0,47,0,1,0,7,9,-25,0,-1,0,-9,-5,24,0,0,0,2,6,-35,0,-1,0,-12,-3,19,0,2,0,4,-2,-8,tilt right
-57,-54,-140,-4571,87,1574,-40,12,-76,-1629,-30,493,-28,-18,-62,-250,-37,71,-19,-9,-53,-102,-32,15,-18,-5,-45,40,3,433,-6,10,-12,1104,-11,-291,-1,-7,-7,1040,12,-368,3,8,7,629,31,-174,4,-1,16,508,36,-157,8,0,23,222,7,-73,9,-1,26,29,-1,-62,11,4,25,-101,0,-112,10,1,22,-240,-15,-110,8,6,22,-252,-10,128,9,2,19,-181,-10,46,8,1,14,-189,-1,45,7,0,14,-230,3,87,4,-2,9,-228,11,115,4,2,7,-154,-2,97,1,0,4,-46,0,72,1,-2,1,-41,-1,14,0,-2,0,-16,-5,43,0,0,0,-17,0,21,0,0,0,-1,4,-26,1,-1,0,-30,1,65,0,1,0,15,-3,-49,0,0,0,-28,1,42,0,1,0,2,0,-23,0,-1,0,-9,1,10,0,1,0,-2,0,-25,tilt right
-56,-27,-157,-5235,137,1449,-36,35,-78,-962,-62,239,-26,-25,-74,-297,-45,32,-19,-6,-55,-75,-63,-22,-14,-9,-48,-26,-24,484,-4,4,-13,1119,-27,-419,-2,-13,-11,627,33,-168,1,17,5,528,32,-114,1,4,8,467,77,-37,5,9,20,431,41,-89,6,-1,20,296,9,-108,10,-1,25,26,-7,5,7,-1,25,-90,-4,-80,9,-1,26,-219,-23,5,4,-1,20,-274,-21,12,6,2,20,-304,-8,100,4,2,15,-211,8,5,5,-1,12,-226,11,72,3,3,8,-166,5,18,3,1,6,-129,5,77,1,2,3,-58,0,20,1,-1,1,-52,-8,34,1,1,0,-41,-11,41,0,0,-1,-11,-8,22,0,0,0,-9,3,10,0,0,0,5,-3,20,0,0,0,-6,0,13,0,0,0,13,0,-30,0,0,0,-7,-1,41,0,0,0,15,-6,-20,tilt right
-33,-65,-146,-5814,157,1771,-37,50,-73,-1475,13,366,-26,-21,-63,-260,-64,20,-14,-3,-55,-100,-63,-3,-13,-9,-41,-43,-26,557,-6,7,-16,1173,-30,-442,2,-26,-12,598,-9,-270,2,7,-3,205,39,-26,-1,0,3,205,51,1,1,13,1,419,34,-58,1,4,12,443,20,-67,4,3,16,475,15,-138,6,-1,22,279,0,-71,7,4,25,68,-5,-40,10,0,30,-98,-10,-58,9,0,25,-262,-27,-113,7,2,23,-375,-14,149,5,7,18,-249,2,112,4,-2,15,-206,16,5,2,-1,10,-276,12,93,2,1,8,-197,10,100,1,1,2,-112,9,16,1,1,1,-52,7,54,0,1,0,5,-7,-9,1,0,0,17,-8,8,0,0,0,13,2,-9,0,0,1,-3,6,-8,0,-2,0,-19,-13,29,0,0,0,-8,-4,-7,0,0,0,-21,5,0,tilt right