AccX1,AccY1,AccZ1,GyrX1,GyrY1,GyrZ1,AccX2,AccY2,AccZ2,GyrX2,GyrY2,GyrZ2,AccX3,AccY3,AccZ3,GyrX3,GyrY3,GyrZ3,AccX4,AccY4,AccZ4,GyrX4,GyrY4,GyrZ4,AccX5,AccY5,AccZ5,GyrX5,GyrY5,GyrZ5,AccX6,AccY6,AccZ6,GyrX6,GyrY6,GyrZ6,AccX7,AccY7,AccZ7,GyrX7,GyrY7,GyrZ7,AccX8,AccY8,AccZ8,GyrX8,GyrY8,GyrZ8,AccX9,AccY9,AccZ9,GyrX9,GyrY9,GyrZ9,AccX10,AccY10,AccZ10,GyrX10,GyrY10,GyrZ10,AccX11,AccY11,AccZ11,GyrX11,GyrY11,GyrZ11,AccX12,AccY12,AccZ12,GyrX12,GyrY12,GyrZ12,AccX13,AccY13,AccZ13,GyrX13,GyrY13,GyrZ13,AccX14,AccY14,AccZ14,GyrX14,GyrY14,GyrZ14,AccX15,AccY15,AccZ15,GyrX15,GyrY15,GyrZ15,AccX16,AccY16,AccZ16,GyrX16,GyrY16,GyrZ16,AccX17,AccY17,AccZ17,GyrX17,GyrY17,GyrZ17,AccX18,AccY18,AccZ18,GyrX18,GyrY18,GyrZ18,AccX19,AccY19,AccZ19,GyrX19,GyrY19,GyrZ19,AccX20,AccY20,AccZ20,GyrX20,GyrY20,GyrZ20,AccX21,AccY21,AccZ21,GyrX21,GyrY21,GyrZ21,AccX22,AccY22,AccZ22,GyrX22,GyrY22,GyrZ22,AccX23,AccY23,AccZ23,GyrX23,GyrY23,GyrZ23,AccX24,AccY24,AccZ24,GyrX24,GyrY24,GyrZ24,AccX25,AccY25,AccZ25,GyrX25,GyrY25,GyrZ25,AccX26,AccY26,AccZ26,GyrX26,GyrY26,GyrZ26,AccX27,AccY27,AccZ27,GyrX27,GyrY27,GyrZ27,AccX28,AccY28,AccZ28,GyrX28,GyrY28,GyrZ28,AccX29,AccY29,AccZ29,GyrX29,GyrY29,GyrZ29,AccX30,AccY30,AccZ30,GyrX30,GyrY30,GyrZ30,Label
67,67,67,65,66,67,68,68,67,66,66,67,67,68,67,68,77,73,67,68,67,72,81,73,67,68,67,70,84,75,68,68,67,69,88,73,68,67,68,67,74,73,68,67,68,69,59,63,68,67,68,64,45,60,68,67,68,66,34,62,68,67,68,65,27,46,67,68,67,69,38,54,67,68,67,62,48,61,67,68,67,64,59,62,67,68,67,64,67,68,67,68,67,65,75,68,67,68,67,63,81,74,67,68,67,69,85,74,67,68,67,69,85,73,67,68,68,70,84,72,68,68,68,70,80,73,68,67,68,71,77,71,68,67,68,69,73,72,68,67,68,70,70,68,68,67,68,67,69,69,68,67,68,68,68,67,68,68,68,67,67,68,68,68,68,68,67,67,68,68,68,68,67,68,68,67,68,67,68,66,left
45,46,46,37,36,37,45,46,45,37,36,37,45,45,45,37,36,37,45,45,45,37,36,37,45,45,45,37,36,37,45,45,45,37,37,37,46,45,46,36,49,39,46,45,46,37,39,37,46,45,46,35,32,36,46,45,46,36,28,33,46,45,46,37,25,38,45,46,45,37,11,31,45,46,45,36,21,33,45,46,45,37,27,35,45,45,45,33,32,36,45,46,45,35,37,37,45,45,45,36,43,37,45,46,45,35,48,37,45,46,45,38,50,40,45,45,46,40,49,37,45,45,46,37,46,38,45,45,46,37,42,38,45,45,46,37,39,37,45,45,46,36,37,38,45,45,45,37,37,36,45,45,45,37,37,37,45,45,45,37,37,36,45,45,45,37,37,36,45,45,45,37,36,36,45,45,45,37,37,37,left
45,45,45,35,36,36,45,45,45,36,36,36,45,45,45,36,36,36,45,45,45,36,36,36,45,45,45,36,36,36,45,45,45,36,36,37,46,45,45,36,49,40,46,45,46,36,42,39,45,45,46,38,36,37,45,45,46,37,32,32,45,45,45,37,29,38,45,45,45,36,14,30,45,45,45,37,20,29,45,45,45,33,25,31,45,45,45,34,30,33,45,45,45,33,34,35,45,45,45,35,37,35,45,45,45,34,40,38,45,45,45,35,42,39,45,45,45,36,43,40,45,45,45,38,44,38,45,45,45,37,44,39,45,45,45,38,43,39,45,45,45,38,41,37,45,45,45,38,40,37,45,45,45,37,38,36,45,45,45,36,37,36,45,45,45,36,36,36,45,45,45,36,36,35,45,45,45,36,36,36,left
45,45,45,36,36,37,45,45,45,36,36,36,45,45,45,36,36,36,45,45,45,36,36,36,45,45,45,36,36,36,45,45,45,36,36,36,45,45,45,36,46,39,45,45,46,37,40,38,45,45,46,36,35,36,45,45,46,36,30,32,45,45,45,37,27,37,45,45,45,36,16,30,45,45,45,34,22,31,45,45,45,35,27,31,45,45,45,35,32,33,45,45,45,33,36,36,45,45,45,35,39,37,45,45,45,35,40,38,45,45,45,34,42,39,45,45,45,36,43,40,45,45,45,38,43,38,45,45,45,38,43,39,45,45,45,38,42,39,45,45,45,38,41,37,45,45,45,38,39,36,45,45,45,37,38,37,45,45,45,36,37,37,45,45,45,36,37,36,45,45,45,36,36,36,45,45,45,36,36,36,left
45,45,45,35,36,38,45,45,45,36,36,37,45,45,45,36,36,36,45,45,45,36,36,36,45,45,45,36,36,37,45,45,45,36,36,36,45,45,45,36,45,38,46,45,46,38,38,36,45,45,45,36,33,36,45,45,46,36,30,33,45,45,45,37,27,36,45,45,45,36,17,30,45,45,45,34,24,32,45,45,45,35,28,32,45,45,45,33,32,34,45,45,45,33,35,37,45,45,45,34,38,38,45,45,45,33,41,37,45,45,45,36,44,41,45,45,45,39,45,39,45,45,45,39,45,38,45,45,45,38,44,39,45,45,45,39,42,37,45,45,45,37,39,37,45,45,45,37,38,36,45,45,45,36,37,36,45,45,45,36,37,35,45,45,45,36,36,37,45,45,45,36,36,36,45,45,45,36,36,36,left
45,45,45,36,35,37,45,45,45,36,36,37,45,45,45,36,36,37,45,45,45,36,36,36,45,45,45,36,36,36,45,45,45,36,36,36,45,45,45,35,46,38,45,45,46,37,39,37,45,45,46,37,32,35,45,45,45,37,28,33,45,45,45,36,25,36,45,45,45,37,15,32,45,45,45,35,22,32,45,45,45,34,29,34,45,45,45,34,35,35,45,45,45,33,41,37,45,45,45,32,45,38,45,45,45,34,46,38,45,45,45,38,45,38,45,45,45,37,43,39,45,45,45,39,41,39,45,45,45,41,39,37,45,45,45,39,39,36,45,45,45,36,39,37,45,45,45,36,38,36,45,45,45,36,38,36,45,45,45,36,37,36,45,45,45,36,36,36,45,45,45,36,36,37,45,45,45,36,36,36,left
45,45,45,37,36,35,45,45,45,36,36,36,45,45,45,36,36,36,45,45,45,36,36,36,45,45,45,36,36,36,45,45,45,36,36,36,45,45,46,36,44,38,45,45,46,38,37,37,45,45,46,35,31,36,45,45,45,37,28,33,45,45,45,37,27,37,45,45,45,35,18,32,45,45,45,35,25,33,45,45,45,36,31,34,45,45,45,35,35,35,45,45,45,34,37,36,45,45,45,35,39,36,45,45,45,34,41,39,45,45,45,36,43,37,45,45,45,36,43,38,45,45,45,37,43,38,45,45,45,38,42,38,45,45,45,38,41,37,45,45,45,38,40,36,45,45,45,37,38,37,45,45,45,37,38,37,45,45,45,36,37,36,45,45,45,36,36,36,45,45,45,36,36,36,45,45,45,36,36,36,left
42,43,43,35,34,35,43,43,43,35,35,35,43,43,43,35,35,35,43,43,43,35,35,35,43,43,43,35,35,35,43,43,43,35,35,35,43,42,43,34,48,39,43,42,43,37,41,38,43,42,43,38,33,36,43,42,43,35,30,30,43,42,43,36,27,38,42,43,42,35,13,27,42,43,42,32,19,28,42,43,42,30,26,30,42,43,42,32,31,32,42,43,42,31,34,35,42,43,42,33,37,37,42,43,42,34,39,38,42,43,42,35,40,37,42,43,42,35,41,39,42,43,43,38,42,36,42,43,43,37,42,37,42,43,43,38,41,35,43,42,43,36,40,37,43,43,43,37,38,35,43,42,43,35,37,35,43,43,43,35,36,35,43,43,43,35,35,35,43,43,43,35,35,35,43,43,43,35,35,35,left
43,43,43,35,35,34,43,43,43,35,35,35,43,43,43,35,35,35,43,43,43,35,35,35,43,43,43,35,35,35,43,43,43,35,35,35,43,42,43,34,46,36,43,43,43,36,38,36,43,42,43,36,31,36,43,43,43,36,27,34,43,42,43,36,25,35,42,43,42,35,13,33,42,43,42,34,20,34,42,43,42,32,28,33,42,43,42,33,33,33,42,43,42,33,37,34,42,43,42,34,40,33,42,43,42,34,42,36,42,43,42,36,42,34,43,43,42,35,42,36,43,43,43,36,41,36,43,43,43,36,40,36,43,43,43,36,39,36,43,43,43,35,38,36,43,43,43,35,37,36,43,43,43,35,37,35,43,43,43,36,36,35,43,43,43,35,35,35,43,43,43,35,35,35,43,43,43,35,35,35,left
41,41,41,41,41,42,41,41,41,41,42,42,41,41,41,41,42,42,41,41,41,41,42,42,41,41,41,41,42,42,41,41,41,42,42,41,42,41,42,43,53,43,42,41,42,42,47,42,42,41,42,43,39,42,42,41,42,40,36,39,42,41,42,42,34,42,41,41,41,40,22,39,41,42,41,40,27,40,41,42,41,40,36,39,41,41,41,41,39,41,41,41,41,40,42,41,41,41,41,41,44,42,41,41,41,42,45,41,41,41,41,40,46,42,41,42,41,42,47,41,41,41,41,42,47,43,41,41,41,43,47,41,41,41,41,43,46,43,41,41,42,43,45,42,41,41,41,43,43,42,41,41,41,42,42,42,41,41,41,42,41,41,41,41,41,41,41,42,41,41,41,41,41,41,41,41,41,41,41,41,left
40,40,40,40,40,40,40,40,40,40,40,40,40,40,40,40,40,40,40,40,40,40,40,40,40,40,40,40,40,40,40,40,40,40,40,40,40,40,40,42,52,42,40,40,40,41,46,42,40,40,41,40,40,40,40,40,40,40,35,37,40,40,40,39,33,40,40,40,40,37,20,36,40,40,39,37,26,36,40,40,39,38,32,37,40,40,39,38,38,40,40,40,39,39,41,40,40,40,40,39,43,43,40,40,40,40,44,42,40,40,40,40,45,42,40,40,40,41,45,42,40,40,40,41,45,41,40,40,40,41,44,40,40,40,40,41,44,40,40,40,40,41,43,40,40,40,40,40,42,40,40,40,40,40,41,40,40,40,40,40,40,40,40,40,40,40,40,40,40,40,40,40,40,40,40,40,40,40,40,40,left
40,40,40,40,40,40,40,40,40,40,40,40,40,40,40,40,40,40,40,40,40,40,40,40,40,40,40,40,40,40,40,40,40,40,40,40,40,40,40,40,50,42,40,40,40,40,45,41,40,40,40,40,40,40,40,40,40,39,36,37,40,40,40,41,34,41,40,40,40,40,23,36,40,40,40,40,27,38,40,40,39,38,32,38,40,40,40,40,37,39,40,40,40,38,39,40,40,40,40,39,42,39,40,40,40,39,43,41,40,40,40,40,44,40,40,40,40,40,45,41,40,40,40,40,45,40,40,40,40,40,45,41,40,40,40,41,44,41,40,40,40,41,43,41,40,40,40,40,42,41,40,40,40,40,41,40,40,40,40,40,40,40,40,40,40,40,40,40,40,40,40,40,40,40,40,40,40,40,40,40,left
40,40,40,41,40,40,40,40,40,40,40,40,40,40,40,40,40,40,40,40,40,40,40,40,40,40,40,40,40,40,40,40,40,40,40,40,40,40,40,39,48,42,40,40,40,40,44,40,40,40,40,40,38,40,40,40,40,39,35,38,40,40,40,40,33,42,40,40,40,41,23,36,40,40,39,39,27,38,40,40,39,39,33,38,40,40,40,40,37,39,40,40,40,38,41,39,40,40,40,39,44,40,40,40,40,39,45,42,40,40,40,40,46,41,40,40,40,40,45,41,40,40,40,41,45,40,40,40,40,41,44,41,40,40,40,41,43,40,40,40,40,41,42,39,40,40,40,40,41,40,40,40,40,40,41,39,40,40,40,40,40,40,40,40,40,40,40,40,40,40,40,40,40,40,40,40,40,40,40,40,left
40,40,40,40,40,40,40,40,40,40,40,40,40,40,40,40,40,40,40,40,40,40,40,40,40,40,40,40,40,40,40,40,40,40,40,40,40,40,40,39,50,42,40,40,40,40,45,41,40,40,40,42,38,40,40,40,40,39,35,38,40,40,40,41,33,41,40,40,40,41,22,37,40,40,39,40,27,37,40,40,39,37,34,39,40,40,40,40,38,38,40,40,40,38,41,40,40,40,40,39,43,40,40,40,40,39,44,41,40,40,40,40,45,40,40,40,40,40,45,41,40,40,40,41,44,41,40,40,40,41,44,41,40,40,40,41,43,41,40,40,40,41,42,40,40,40,40,40,42,40,40,40,40,40,41,40,40,40,40,40,41,40,40,40,40,40,40,40,40,40,40,40,40,40,40,40,40,40,40,40,left
40,40,40,39,40,40,40,40,40,40,40,40,40,40,40,40,40,40,40,40,40,40,40,40,40,40,40,40,40,40,40,40,40,40,40,40,40,40,40,40,49,42,40,40,40,40,45,41,40,40,40,40,40,40,40,40,40,39,37,37,40,40,40,40,34,42,40,40,40,40,23,36,40,40,40,39,26,38,40,40,39,39,32,38,40,40,40,40,36,39,40,40,39,38,39,39,40,40,40,38,42,40,40,40,40,39,44,41,40,40,40,39,46,40,40,40,40,40,46,41,40,40,40,41,46,42,40,40,40,42,45,40,40,40,40,41,43,41,40,40,40,41,42,40,40,40,40,40,41,41,40,40,40,40,40,40,40,40,40,40,40,40,40,40,40,40,40,39,40,40,40,40,40,40,40,40,40,40,40,40,left
40,40,40,40,41,40,40,40,40,40,40,40,40,40,40,40,40,40,40,40,40,40,40,40,40,40,40,40,40,40,40,40,40,40,40,40,40,40,40,38,49,41,40,40,41,40,42,40,40,40,40,40,37,40,40,40,40,39,35,39,40,40,40,40,33,41,40,40,40,40,23,37,39,40,39,40,29,39,40,40,40,39,36,38,40,40,40,40,39,38,40,40,40,39,42,39,40,40,40,40,44,39,40,40,40,40,45,40,40,40,40,40,45,41,40,40,40,40,44,42,40,40,40,40,44,42,40,40,40,40,43,41,40,40,40,40,43,42,40,40,40,40,42,41,40,40,40,41,42,40,40,40,40,40,41,39,40,40,40,40,40,40,40,40,40,40,40,40,40,40,40,40,40,40,40,40,40,40,40,40,left
40,40,40,39,40,40,40,40,40,40,40,40,40,40,40,40,40,40,40,40,40,40,40,40,40,40,40,40,40,40,40,40,40,40,40,40,40,40,40,39,47,41,40,40,41,41,40,40,40,40,40,38,37,40,40,40,40,40,34,39,40,40,40,40,33,41,40,40,40,40,24,37,39,40,39,38,32,39,40,40,40,41,36,38,40,40,39,40,39,38,40,40,40,38,42,40,40,40,40,40,44,40,40,40,40,39,45,41,40,40,40,40,45,40,40,40,40,40,45,41,40,40,40,41,45,41,40,40,40,40,44,41,40,40,40,41,43,40,40,40,40,40,42,40,40,40,40,40,41,40,40,40,40,40,40,40,40,40,40,40,40,40,40,40,40,40,40,40,40,40,40,40,40,40,40,40,40,40,40,40,left
40,40,40,40,40,39,40,40,40,40,40,40,40,40,40,40,40,40,40,40,40,40,40,40,40,40,40,40,40,40,40,40,40,40,40,40,40,40,40,40,47,40,40,40,40,41,41,40,40,40,40,39,38,40,40,40,40,40,36,38,40,40,40,40,35,40,40,40,40,40,27,37,40,40,39,38,32,40,40,40,40,39,36,39,40,40,40,39,38,40,40,40,40,39,39,40,40,40,40,40,41,40,40,40,40,39,42,40,40,40,40,40,42,39,40,40,40,40,43,40,40,40,40,41,43,39,40,40,40,40,44,42,40,40,40,42,44,40,40,40,40,40,44,41,40,40,40,41,43,41,40,40,40,40,42,41,40,40,40,41,41,40,40,40,40,40,40,40,40,40,40,40,40,40,40,40,40,40,40,40,left
40,40,40,40,40,39,40,40,40,40,40,40,40,40,40,40,40,40,40,40,40,40,40,40,40,40,40,40,40,39,40,40,40,40,40,40,40,40,40,40,47,40,40,40,40,40,41,40,40,40,40,39,37,40,40,40,40,39,35,39,40,40,40,39,34,40,40,40,40,39,25,38,40,40,39,39,31,39,40,40,40,39,35,39,40,40,39,39,38,40,40,40,40,40,40,41,40,40,40,40,42,41,40,40,40,40,44,41,40,40,40,41,45,40,40,40,40,41,45,40,40,40,40,41,45,40,40,40,40,41,44,40,40,40,40,41,43,40,40,40,40,40,42,40,40,40,40,40,42,40,40,40,40,40,41,40,40,40,40,40,40,40,40,40,40,40,40,40,40,40,40,40,40,40,40,40,40,40,40,40,left
40,40,40,40,40,39,40,40,40,40,40,39,40,40,40,40,40,40,40,40,40,40,40,40,40,40,40,40,40,40,40,40,40,40,40,40,40,40,40,39,48,42,40,40,40,40,43,41,40,40,40,40,38,40,40,40,40,40,36,38,40,40,40,40,35,41,40,40,40,41,26,37,40,40,40,39,30,38,40,40,39,39,34,38,40,40,40,39,37,40,40,40,40,39,39,40,40,40,40,39,41,41,40,40,40,41,43,40,40,40,40,41,44,40,40,40,40,41,44,40,40,40,40,40,44,41,40,40,40,41,44,40,40,40,40,40,44,40,40,40,40,40,43,41,40,40,40,40,43,41,40,40,40,41,42,40,40,40,40,40,41,40,40,40,40,40,40,40,40,40,40,40,40,40,40,40,40,40,40,40,left
40,40,40,40,40,39,40,40,40,40,40,40,40,40,40,40,40,40,40,40,40,40,40,40,40,40,40,40,40,40,40,40,40,40,40,40,40,40,40,39,47,41,40,40,40,40,42,41,40,40,40,39,38,40,40,40,40,39,36,38,40,40,40,40,35,41,40,40,40,39,26,38,40,40,39,39,30,38,40,40,39,40,34,38,40,40,40,40,37,39,40,40,40,37,40,41,40,40,40,39,42,40,40,40,40,39,43,40,40,40,40,39,43,40,40,40,40,40,43,42,40,40,40,43,43,40,40,40,40,42,44,39,40,40,40,41,44,40,40,40,40,41,44,40,40,40,40,41,43,40,40,40,40,40,42,39,40,40,40,40,41,40,40,40,40,40,40,40,40,40,40,39,40,40,40,40,40,40,40,40,left
40,40,40,40,39,40,40,40,40,40,40,40,40,40,40,40,40,40,40,40,40,40,40,40,40,40,40,40,40,40,40,40,40,40,40,40,40,40,40,40,46,40,40,40,40,40,40,40,40,40,40,39,37,40,40,40,40,40,35,39,40,40,40,40,34,39,40,40,40,40,26,39,40,40,39,39,32,39,40,40,40,40,35,38,40,40,40,39,38,39,40,40,40,39,41,39,40,40,40,39,43,40,40,40,40,40,44,40,40,40,40,39,44,41,40,40,40,39,44,40,40,40,40,40,43,41,40,40,40,40,43,41,40,40,40,41,43,40,40,40,40,40,43,41,40,40,40,41,43,40,40,40,40,40,42,40,40,40,40,41,41,40,40,40,40,40,40,40,40,40,40,40,40,40,40,40,40,40,40,40,left
40,40,40,40,40,40,40,40,40,40,40,40,40,40,40,40,40,40,40,40,40,40,40,40,40,40,40,40,40,40,40,40,40,40,40,40,40,40,40,40,48,41,40,40,40,40,42,40,40,40,40,40,38,40,40,40,40,39,35,39,40,40,40,40,34,40,40,40,40,39,25,38,40,40,39,39,30,39,40,40,40,39,35,38,40,40,40,39,38,39,40,40,40,39,41,40,40,40,40,40,43,40,40,40,40,40,43,40,40,40,40,39,43,41,40,40,40,40,43,40,40,40,40,39,43,41,40,40,40,40,43,40,40,40,40,40,43,40,40,40,40,41,42,40,40,40,40,40,42,40,40,40,40,41,41,39,40,40,40,40,41,40,40,40,40,41,41,40,40,40,40,40,41,40,40,40,40,40,41,40,left
40,40,40,39,40,40,40,40,40,40,40,40,40,40,40,40,40,40,40,40,40,40,40,40,40,40,40,40,40,40,40,40,40,40,40,39,40,40,40,40,47,41,40,40,40,41,43,40,40,40,40,40,38,40,40,40,40,40,36,38,40,40,40,40,34,41,40,40,40,39,26,38,40,40,40,39,30,39,40,40,40,38,34,39,40,40,40,39,37,39,40,40,40,38,39,40,40,40,40,39,41,39,40,40,40,39,42,40,40,40,40,39,42,40,40,40,40,40,44,41,40,40,40,41,44,41,40,40,40,41,44,40,40,40,40,40,45,41,40,40,40,42,44,41,40,40,40,41,42,40,40,40,40,41,41,40,40,40,40,40,41,40,40,40,40,40,40,40,40,40,40,40,40,40,40,40,40,40,40,40,left
40,40,40,40,40,40,40,40,40,40,40,40,40,40,40,40,40,40,40,40,40,40,40,40,40,40,40,40,40,40,40,40,40,40,40,40,40,40,40,40,46,41,40,40,40,41,41,40,40,40,40,40,37,40,40,40,40,40,35,39,40,40,40,40,34,40,40,40,40,40,26,38,40,40,39,39,32,38,40,40,40,39,36,37,40,40,40,39,39,39,40,40,40,39,41,40,40,40,40,39,42,40,40,40,40,39,42,41,40,40,40,38,43,42,40,40,40,40,43,41,40,40,40,40,43,41,40,40,40,40,43,40,40,40,40,41,43,41,40,40,40,42,43,39,40,40,40,41,42,40,40,40,40,41,42,39,40,40,40,40,41,40,40,40,40,40,41,40,40,40,40,40,40,40,40,40,40,40,40,40,left
40,40,40,40,41,40,40,40,40,40,40,40,40,40,40,40,40,40,40,40,40,40,40,40,40,40,40,40,40,40,40,40,40,40,40,40,40,40,40,40,47,41,40,40,40,41,43,40,40,40,40,40,37,41,40,40,40,39,36,38,40,40,40,40,34,41,40,40,40,39,26,38,40,40,39,38,30,39,40,40,39,39,35,38,40,40,40,40,37,39,40,40,40,39,40,39,40,40,40,39,41,40,40,40,40,40,43,40,40,40,40,39,43,41,40,40,40,40,43,40,40,40,40,40,43,41,40,40,40,41,43,40,40,40,40,40,43,40,40,40,40,41,43,39,40,40,40,40,43,40,40,40,40,41,42,40,40,40,40,40,41,40,40,40,40,40,41,40,40,40,40,40,40,40,40,40,40,40,40,40,left
40,40,40,39,39,39,40,40,40,39,40,40,40,40,40,40,40,40,40,40,40,40,40,40,40,40,40,40,40,40,40,40,40,40,40,40,40,40,40,40,49,41,40,40,40,41,43,41,40,40,40,40,38,40,40,40,40,39,36,38,40,40,40,40,34,40,40,40,40,39,24,37,40,40,39,39,28,38,40,40,39,38,33,38,40,40,40,39,36,39,40,40,40,38,39,41,40,40,40,39,42,40,40,40,40,39,45,41,40,40,40,41,46,40,40,40,40,41,46,41,40,40,40,41,45,40,40,40,40,41,44,40,40,40,40,40,43,40,40,40,40,40,42,41,40,40,40,40,41,41,40,40,40,40,41,40,40,40,40,40,40,40,40,40,40,40,40,40,40,40,40,40,40,40,40,40,40,40,40,40,left
40,40,40,40,40,39,40,40,40,40,40,40,40,40,40,40,40,40,40,40,40,40,40,40,40,40,40,40,40,40,40,40,40,40,40,40,40,40,40,40,48,42,40,40,40,40,44,41,40,40,40,41,39,40,40,40,40,39,36,37,40,40,40,40,34,42,40,40,40,40,24,36,40,40,40,39,28,37,40,40,39,38,34,38,40,40,40,40,37,39,40,40,40,39,40,39,40,40,40,38,42,40,40,40,40,40,43,41,40,40,40,39,44,42,40,40,40,40,44,40,40,40,40,39,44,42,40,40,40,41,43,40,40,40,40,40,43,42,40,40,40,42,43,40,40,40,40,41,43,41,40,40,40,41,42,40,40,40,40,41,42,40,40,40,40,40,41,40,40,40,40,40,41,40,40,40,40,40,40,39,left
40,40,40,40,40,40,40,40,40,40,40,40,40,40,40,40,40,40,40,40,40,40,40,40,40,40,40,40,40,40,40,40,40,40,40,40,40,40,40,40,48,41,40,40,40,40,43,41,40,40,40,40,38,41,40,40,40,39,36,38,40,40,40,40,34,41,40,40,40,39,24,37,40,40,39,39,28,39,40,40,40,40,34,38,40,40,40,39,37,39,40,40,40,39,40,39,40,40,40,40,42,40,40,40,40,38,44,40,40,40,40,39,44,41,40,40,40,40,44,40,40,40,40,39,44,41,40,40,40,40,44,41,40,40,40,41,44,40,40,40,40,41,43,40,40,40,40,41,43,40,40,40,40,41,42,40,40,40,40,40,41,40,40,40,40,40,41,40,40,40,40,40,40,40,40,40,40,40,40,39,left
40,40,40,40,40,40,40,40,40,40,40,40,40,40,40,40,40,40,40,40,40,40,40,40,40,40,40,40,40,40,40,40,40,40,40,40,40,40,40,41,50,41,40,40,40,40,46,41,40,40,40,41,41,41,40,40,40,39,37,39,40,40,40,40,35,41,40,40,40,39,24,38,40,40,40,39,26,38,39,40,39,38,31,39,40,40,40,39,35,38,40,40,40,39,38,40,40,40,40,38,41,40,40,40,40,39,42,40,40,40,40,40,44,40,40,40,40,40,44,40,40,40,40,40,44,41,40,40,40,41,44,40,40,40,40,41,43,40,40,40,40,41,43,40,40,40,40,41,43,40,40,40,40,41,42,40,40,40,40,41,42,40,40,40,40,40,41,40,40,40,40,40,41,40,40,40,40,40,40,40,left
40,40,40,39,39,40,40,40,40,40,40,40,40,40,40,40,40,40,40,40,40,40,40,40,40,40,40,40,40,40,40,40,40,40,40,40,40,40,40,40,49,41,40,40,40,40,45,41,40,40,40,40,39,41,40,40,40,39,36,38,40,40,40,40,34,41,40,40,40,38,24,38,40,40,40,39,27,39,40,40,39,39,33,38,40,40,40,39,37,39,40,40,40,38,40,40,40,40,40,39,42,40,40,40,40,37,43,41,40,40,40,39,43,41,40,40,40,39,43,41,40,40,40,41,44,40,40,40,40,42,44,41,40,40,40,43,44,40,40,40,40,42,44,39,40,40,40,41,43,39,40,40,40,40,42,40,40,40,40,40,41,40,40,40,40,40,40,40,40,40,40,40,40,40,40,40,40,40,40,39,left
40,40,40,40,40,40,40,40,40,39,40,40,40,40,40,39,40,40,40,40,40,40,40,40,40,40,40,40,40,40,40,40,40,40,40,40,40,40,40,41,50,41,40,40,40,41,47,41,40,40,40,41,41,41,40,40,40,39,37,39,40,40,40,39,35,41,40,40,40,39,24,37,40,40,40,38,26,38,40,40,40,38,31,38,40,40,39,40,35,37,40,40,40,40,38,39,40,40,40,37,40,40,40,40,40,38,42,40,40,40,40,38,43,41,40,40,40,38,44,41,40,40,40,39,44,41,40,40,40,42,44,41,40,40,40,42,44,41,40,40,40,42,44,40,40,40,40,42,43,40,40,40,40,41,42,39,40,40,40,40,41,40,40,40,40,40,40,40,40,40,40,40,40,40,40,40,40,40,40,40,left
40,40,40,39,40,39,40,40,40,40,40,40,40,40,40,40,40,40,40,40,40,40,40,40,40,40,40,40,40,40,40,40,40,40,40,40,40,40,40,41,48,42,40,40,40,40,45,41,40,40,40,39,40,41,40,40,40,39,37,37,40,40,40,40,35,42,40,40,40,39,26,36,40,40,40,39,28,38,40,40,39,40,33,37,40,40,40,40,36,38,40,40,40,39,39,40,40,40,40,40,40,39,40,40,40,40,42,40,40,40,40,37,44,41,40,40,40,39,43,42,40,40,40,39,43,41,40,40,40,39,43,41,40,40,40,40,43,41,40,40,40,42,43,40,40,40,40,41,43,40,40,40,40,41,42,40,40,40,40,40,42,40,40,40,40,40,41,40,40,40,40,40,40,40,40,40,40,40,40,40,left
40,40,40,40,40,40,40,40,40,40,40,40,40,40,40,40,40,40,40,40,40,40,40,40,40,40,40,40,40,40,40,40,40,40,40,40,40,40,40,39,48,42,40,40,40,40,44,41,40,40,40,40,39,40,40,40,40,39,36,38,40,40,40,40,34,42,40,40,40,40,25,36,40,40,40,39,28,38,40,40,39,38,34,38,40,40,40,39,37,39,40,40,40,39,40,40,40,40,40,39,42,41,40,40,40,40,43,40,40,40,40,40,44,40,40,40,40,40,44,40,40,40,40,41,43,40,40,40,40,41,43,41,40,40,40,41,43,40,40,40,40,41,42,40,40,40,40,40,42,40,40,40,40,40,41,40,40,40,40,40,41,40,40,40,40,40,41,40,40,40,40,40,41,40,40,40,40,40,40,40,left
40,40,40,40,39,40,40,40,40,40,40,40,40,40,40,40,40,40,40,40,40,40,40,40,40,40,40,40,40,40,40,40,40,40,40,40,40,40,40,41,50,41,41,40,40,41,45,41,40,40,40,39,38,41,40,40,40,39,36,38,40,40,40,39,33,41,40,40,40,37,22,36,39,40,39,37,27,39,40,40,39,40,34,37,40,40,40,40,38,38,40,40,40,39,41,40,40,40,40,40,43,41,40,40,40,39,43,41,40,40,40,39,44,41,40,40,40,39,44,41,40,40,40,41,44,41,40,40,40,41,43,41,40,40,40,42,43,40,40,40,40,41,43,40,40,40,40,41,42,40,40,40,40,40,41,40,40,40,40,40,41,40,40,40,40,40,41,40,40,40,40,40,40,40,40,40,40,40,40,40,left
40,40,40,39,40,40,40,40,40,40,40,40,40,40,40,40,40,40,40,40,40,40,40,40,40,40,40,40,40,40,40,40,40,40,40,40,40,40,40,41,49,42,40,40,40,40,45,41,40,40,40,39,39,40,40,40,40,38,37,37,40,40,40,40,35,41,40,40,40,38,24,36,40,40,40,39,27,38,40,40,39,39,33,38,40,40,39,39,36,39,40,40,40,38,39,41,40,40,40,39,41,41,40,40,40,39,43,41,40,40,40,40,44,42,40,40,40,41,44,41,40,40,40,41,45,41,40,40,40,42,44,41,40,40,40,41,44,40,40,40,40,41,43,40,40,40,40,41,43,40,40,40,40,41,42,40,40,40,40,40,41,40,40,40,40,40,41,40,40,40,40,40,40,40,40,40,40,40,40,40,left
40,40,40,41,40,40,40,40,40,40,40,40,40,40,40,40,40,40,40,40,40,40,40,40,40,40,40,40,40,40,40,40,40,40,40,40,40,40,40,41,49,42,40,40,40,40,45,41,40,40,40,40,40,40,40,40,40,39,37,38,40,40,40,39,35,41,40,40,40,38,24,37,40,40,40,39,27,37,40,40,39,39,32,38,40,40,40,39,36,39,40,40,40,38,39,41,40,40,40,39,41,40,40,40,40,39,42,41,40,40,40,39,43,41,40,40,40,40,44,40,40,40,40,41,44,41,40,40,40,41,44,40,40,40,40,41,44,40,40,40,40,42,44,40,40,40,40,41,43,40,40,40,40,41,42,40,40,40,40,40,42,40,40,40,40,40,41,40,40,40,40,40,40,40,40,40,40,40,40,40,left
40,40,40,40,39,40,40,40,40,40,39,40,40,40,40,40,40,40,40,40,40,40,40,40,40,40,40,40,40,40,40,40,40,40,40,40,40,40,40,41,49,41,40,40,40,40,46,41,40,40,40,40,40,40,40,40,40,39,37,38,40,40,40,39,35,41,40,40,40,38,23,38,40,40,40,39,25,39,40,40,39,38,31,39,40,40,40,39,35,39,40,40,40,39,37,40,40,40,40,39,40,40,40,40,40,41,43,40,40,40,40,41,45,40,40,40,40,41,46,40,40,40,40,41,46,41,40,40,40,41,46,40,40,40,40,40,45,41,40,40,40,41,44,40,40,40,40,40,42,40,40,40,40,40,41,40,40,40,40,40,41,40,40,40,40,40,40,40,40,40,40,40,40,40,40,40,40,40,40,40,left
40,40,40,40,40,40,40,40,40,40,40,40,40,40,40,40,40,40,40,40,40,40,40,40,40,40,40,40,40,40,40,40,40,40,40,40,40,40,40,39,46,40,40,40,40,40,41,41,40,40,40,40,36,40,40,40,40,40,34,39,40,40,40,40,32,40,40,40,40,40,26,39,40,40,39,40,31,38,40,40,39,38,36,39,40,40,39,40,39,39,40,40,40,38,43,41,40,40,40,40,44,39,40,40,40,39,46,42,40,40,40,41,46,40,40,40,40,40,45,41,40,40,40,41,44,40,40,40,40,40,43,40,40,40,40,40,42,40,40,40,40,40,41,39,40,40,40,40,41,40,40,40,40,40,40,40,40,40,40,40,40,40,40,40,40,40,40,40,40,40,40,40,40,40,40,40,40,40,40,40,left
40,40,40,40,40,40,40,40,40,40,40,40,40,40,40,40,40,40,40,40,40,40,40,40,40,40,40,40,40,40,40,40,40,40,40,40,40,40,40,39,49,41,40,40,40,39,44,40,40,40,40,41,39,40,40,40,40,39,36,39,40,40,40,41,34,41,40,40,40,40,24,38,40,40,40,40,28,39,40,40,39,39,33,39,40,40,40,41,37,38,40,40,40,39,40,39,40,40,40,41,41,39,40,40,40,39,42,40,40,40,40,38,43,41,40,40,40,39,44,41,40,40,40,40,44,41,40,40,40,39,44,41,40,40,40,41,44,41,40,40,40,42,44,40,40,40,40,41,43,40,40,40,40,41,42,40,40,40,40,40,41,40,40,40,40,40,41,40,40,40,40,40,40,40,40,40,40,40,40,40,left
40,40,40,40,40,41,40,40,40,40,40,40,40,40,40,40,40,40,40,40,40,40,40,40,40,40,40,40,40,40,40,40,40,39,40,40,40,40,40,40,47,41,40,40,40,40,42,40,40,40,40,40,38,40,40,40,40,39,35,39,40,40,40,40,33,40,40,40,40,39,25,38,40,40,39,39,29,40,40,40,39,39,34,39,40,40,40,40,37,40,40,40,40,39,40,40,40,40,40,40,42,40,40,40,40,39,44,40,40,40,40,41,45,39,40,40,40,40,45,40,40,40,40,41,45,40,40,40,40,40,45,40,40,40,40,41,44,39,40,40,40,40,43,41,40,40,40,40,42,40,40,40,40,40,41,40,40,40,40,40,40,40,40,40,40,40,40,40,40,40,40,40,40,40,40,40,40,40,40,40,left
40,40,40,40,39,40,40,40,40,40,39,40,40,40,40,40,39,40,40,40,40,40,40,40,40,40,40,40,40,40,40,40,40,40,40,40,40,40,40,40,50,42,40,40,40,40,47,41,40,40,40,40,41,40,40,40,40,39,37,38,40,40,40,40,34,41,40,40,40,39,23,37,40,40,40,39,24,37,40,40,39,38,30,38,40,40,39,38,35,38,40,40,39,39,39,40,40,40,40,38,42,40,40,40,40,40,44,41,40,40,40,40,46,41,40,40,40,41,46,41,40,40,40,41,46,41,40,40,40,41,44,40,40,40,40,40,43,40,40,40,40,40,42,41,40,40,40,40,41,40,40,40,40,40,41,40,40,40,40,40,41,40,40,40,40,40,40,40,40,40,40,40,40,40,40,40,40,40,40,40,left
40,40,40,39,40,40,40,40,40,39,40,40,40,40,40,39,40,40,40,40,40,40,40,40,40,40,40,40,40,40,40,40,40,40,40,39,40,40,40,40,49,42,40,40,40,40,46,41,40,40,40,40,40,41,40,40,40,39,36,38,40,40,40,39,34,42,40,40,40,39,24,37,40,40,40,39,26,38,40,40,39,39,32,39,40,40,39,39,37,39,40,40,40,40,39,40,40,40,40,40,42,41,40,40,40,40,43,40,40,40,40,40,44,41,40,40,40,40,44,40,40,40,40,40,44,41,40,40,40,41,44,40,40,40,40,41,44,40,40,40,40,41,43,41,40,40,40,41,42,40,40,40,40,41,42,40,40,40,40,40,41,40,40,40,40,40,40,40,40,40,40,40,40,40,40,40,40,40,40,40,left
40,40,40,40,40,40,40,40,40,40,40,40,40,40,40,40,40,40,40,40,40,40,40,40,40,40,40,40,40,40,40,40,40,40,40,40,40,40,40,39,48,41,40,40,40,41,43,40,40,40,40,40,37,40,40,40,40,39,35,38,40,40,40,40,33,41,40,40,40,40,24,36,40,40,39,38,30,39,40,40,40,39,35,38,40,40,40,39,38,40,40,40,40,40,40,40,40,40,40,41,42,41,40,40,40,39,43,40,40,40,40,39,44,42,40,40,40,40,44,40,40,40,40,39,45,40,40,40,40,39,44,41,40,40,40,41,43,40,40,40,40,41,43,40,40,40,40,41,42,40,40,40,40,41,41,40,40,40,40,40,41,40,40,40,40,40,40,40,40,40,40,40,40,40,40,40,40,40,40,40,left
40,40,40,40,40,40,40,40,40,40,40,40,40,40,40,40,40,40,40,40,40,40,40,40,40,40,40,40,40,40,40,40,40,40,40,40,40,40,40,40,49,42,40,40,40,39,46,41,40,40,40,40,40,40,40,40,40,38,36,38,40,40,40,39,33,42,40,40,40,39,22,36,40,40,40,40,25,38,39,40,39,39,32,38,40,40,40,39,37,40,40,40,39,39,40,41,40,40,40,40,43,41,40,40,40,40,45,40,40,40,40,41,45,42,40,40,40,42,45,40,40,40,40,41,45,40,40,40,40,41,43,40,40,40,40,40,43,40,40,40,40,39,42,40,40,40,40,40,42,40,40,40,40,40,41,40,40,40,40,40,41,40,40,40,40,40,40,40,40,40,40,40,40,40,40,40,40,40,40,40,left
40,40,40,40,40,40,40,40,40,40,40,40,40,40,40,40,40,40,40,40,40,40,40,40,40,40,40,40,40,40,40,40,40,40,40,40,40,40,40,40,48,42,40,40,40,39,45,41,40,40,40,40,41,41,40,40,40,39,38,38,40,40,40,40,35,41,40,40,40,40,26,37,40,40,40,41,27,37,40,40,39,40,32,38,40,40,40,40,35,38,40,40,40,39,38,40,40,40,40,39,41,40,40,40,40,38,42,41,40,40,40,39,43,41,40,40,40,40,44,41,40,40,40,40,43,40,40,40,40,40,44,41,40,40,40,42,44,40,40,40,40,41,43,40,40,40,40,41,43,40,40,40,40,40,42,40,40,40,40,40,42,40,40,40,40,40,41,40,40,40,40,40,40,40,40,40,40,40,40,40,left
40,40,40,41,41,39,40,40,40,40,40,40,40,40,40,40,40,40,40,40,40,40,40,40,40,40,40,40,40,40,40,40,40,40,40,40,40,40,40,40,48,42,40,40,40,39,45,40,40,40,40,40,40,40,40,40,40,39,36,37,40,40,40,40,34,41,40,40,40,40,25,36,40,40,40,40,27,38,40,40,39,40,32,39,40,40,40,40,37,39,40,40,40,38,40,40,40,40,40,39,42,40,40,40,40,39,43,41,40,40,40,39,44,41,40,40,40,39,44,40,40,40,40,40,44,41,40,40,40,41,43,40,40,40,40,41,43,41,40,40,40,41,43,41,40,40,40,41,42,40,40,40,40,41,42,40,40,40,40,40,41,40,40,40,40,40,40,40,40,40,40,40,40,40,40,40,40,40,40,40,left
40,40,40,40,40,40,40,40,40,40,40,40,40,40,40,40,40,40,40,40,40,40,40,40,40,40,40,40,40,40,40,40,40,40,40,40,40,40,40,40,48,42,40,40,40,40,43,40,40,40,40,40,38,40,40,40,40,39,36,37,40,40,40,40,34,41,40,40,40,39,25,36,40,40,40,38,30,38,40,40,40,39,35,38,40,40,40,40,38,39,40,40,40,39,41,39,40,40,40,39,42,41,40,40,40,40,43,40,40,40,40,39,44,41,40,40,40,40,44,41,40,40,40,40,44,41,40,40,40,41,43,41,40,40,40,41,43,41,40,40,40,41,42,40,40,40,40,41,41,40,40,40,40,40,41,40,40,40,40,40,40,40,40,40,40,40,40,40,40,40,40,40,40,40,40,40,40,40,40,40,left
40,40,40,40,40,40,40,40,40,40,40,40,40,40,40,40,40,40,40,40,40,40,40,40,40,40,40,40,40,40,40,40,40,40,40,40,40,40,40,40,49,42,40,40,40,41,43,41,40,40,40,40,38,40,40,40,40,39,35,37,40,40,40,40,34,41,40,40,40,38,24,36,39,40,39,39,29,37,40,40,39,39,36,38,40,40,40,40,39,39,40,40,40,39,41,39,40,40,40,39,43,40,40,40,40,40,43,41,40,40,40,38,43,41,40,40,40,40,43,41,40,40,40,39,43,42,40,40,40,41,42,40,40,40,40,40,42,42,40,40,40,42,42,40,40,40,40,40,42,41,40,40,40,41,41,40,40,40,40,41,41,40,40,40,40,40,41,39,40,40,40,40,40,40,40,40,40,40,40,40,left
40,40,40,40,39,40,40,40,40,40,40,40,40,40,40,40,40,40,40,40,40,40,40,40,40,40,40,40,40,40,40,40,40,40,40,40,40,40,40,39,47,41,40,40,40,41,42,40,40,40,40,39,37,40,40,40,40,40,35,38,40,40,40,40,33,40,40,40,40,40,25,36,39,40,39,39,31,39,40,40,40,40,37,38,40,40,40,39,41,40,40,40,40,39,44,40,40,40,40,40,45,41,40,40,40,40,45,41,40,40,40,39,43,42,40,40,40,40,42,40,40,40,40,39,41,41,40,40,40,40,41,40,40,40,40,40,41,41,40,40,40,41,41,40,40,40,40,40,41,40,40,40,40,41,42,39,40,40,40,40,41,39,40,40,40,40,41,40,40,40,40,40,41,40,40,40,40,40,40,40,left
40,40,40,39,39,41,40,40,40,40,39,40,40,40,40,40,40,40,40,40,40,40,40,40,40,40,40,40,40,40,40,40,40,40,40,40,40,40,40,41,51,41,40,40,40,40,46,40,40,40,40,40,39,40,40,40,40,39,36,39,40,40,40,40,34,41,40,40,40,39,21,37,40,40,39,39,27,38,40,40,39,39,34,39,40,40,40,40,38,38,40,40,40,39,41,39,40,40,40,39,43,40,40,40,40,40,44,40,40,40,40,39,44,41,40,40,40,40,45,41,40,40,40,41,44,41,40,40,40,41,44,40,40,40,40,41,44,41,40,40,40,41,43,41,40,40,40,41,42,40,40,40,40,41,42,40,40,40,40,40,41,40,40,40,40,40,40,40,40,40,40,40,40,39,40,40,40,40,39,40,left
40,40,40,40,39,39,40,40,40,39,40,40,40,40,40,40,40,40,40,40,40,39,40,40,40,40,40,39,40,40,40,40,40,39,40,40,40,40,40,39,49,42,40,40,40,39,43,41,40,40,40,40,37,40,40,40,40,40,34,38,40,40,40,41,32,40,40,40,40,40,22,37,39,40,39,40,29,38,40,40,39,39,36,38,40,40,40,39,40,39,40,40,40,38,43,40,40,40,40,40,44,41,40,40,40,40,45,41,40,40,40,40,45,41,40,40,40,41,45,41,40,40,40,41,44,41,40,40,40,40,44,41,40,40,40,40,43,40,40,40,40,40,42,40,40,40,40,40,41,40,40,40,40,40,41,40,40,40,40,40,40,40,40,40,40,40,40,40,40,40,40,40,40,40,40,40,40,40,40,40,left
40,40,40,40,40,40,40,40,40,40,40,40,40,40,40,40,40,40,40,40,40,40,40,40,40,40,40,40,40,40,40,40,40,40,40,40,40,40,40,39,48,41,40,40,40,40,43,40,40,40,40,40,38,40,40,40,40,40,35,39,40,40,40,40,33,41,40,40,40,40,24,38,40,40,39,39,29,39,40,40,39,39,35,39,40,40,40,40,40,40,40,40,40,39,43,39,40,40,40,39,44,40,40,40,40,40,44,40,40,40,40,40,44,40,40,40,40,40,44,40,40,40,40,40,43,40,40,40,40,40,43,41,40,40,40,41,42,40,40,40,40,40,42,40,40,40,40,41,41,40,40,40,40,40,41,40,40,40,40,40,40,40,40,40,40,40,40,40,40,40,40,40,40,40,40,40,40,40,40,40,left
40,40,40,40,39,39,40,40,40,40,40,40,40,40,40,40,40,40,40,40,40,40,40,40,40,40,40,40,40,40,40,40,40,40,40,40,40,40,40,41,50,41,40,40,40,40,45,40,40,40,40,39,38,40,40,40,40,39,35,39,40,40,40,40,32,41,40,40,40,38,22,38,39,40,39,39,28,39,40,40,39,39,36,39,40,40,40,40,40,39,40,40,40,38,43,40,40,40,40,40,44,40,40,40,40,39,45,40,40,40,40,40,44,40,40,40,40,40,44,41,40,40,40,41,43,40,40,40,40,41,43,40,40,40,40,41,42,41,40,40,40,41,41,40,40,40,40,40,41,40,40,40,40,40,41,40,40,40,40,40,40,40,40,40,40,40,40,40,40,40,40,40,40,40,40,40,40,40,40,40,left
40,40,40,39,40,41,40,40,40,40,40,40,40,40,40,40,40,40,40,40,40,40,40,40,40,40,40,40,40,40,40,40,40,40,40,40,40,40,40,41,49,41,40,40,40,39,44,40,40,40,40,40,38,40,40,40,40,39,36,39,40,40,40,40,34,41,40,40,40,38,24,39,40,40,39,40,29,39,40,40,39,39,35,39,40,40,40,39,39,39,40,40,40,39,42,40,40,40,40,40,44,40,40,40,40,40,45,40,40,40,40,40,44,41,40,40,40,40,44,40,40,40,40,40,43,41,40,40,40,41,42,41,40,40,40,41,42,40,40,40,40,41,42,40,40,40,40,40,41,40,40,40,40,40,41,40,40,40,40,40,40,40,40,40,40,40,40,40,40,40,40,40,40,40,40,40,40,40,40,40,left
40,40,40,40,39,40,40,40,40,40,40,40,40,40,40,40,40,40,40,40,40,40,40,40,40,40,40,40,40,40,40,40,40,40,40,40,40,40,40,40,49,41,40,40,40,40,44,40,40,40,40,39,38,40,40,40,40,39,35,39,40,40,40,40,33,40,40,40,40,39,23,38,40,40,39,39,28,39,40,40,39,40,35,38,40,40,40,39,39,39,40,40,40,39,42,40,40,40,40,40,44,41,40,40,40,40,45,40,40,40,40,40,45,41,40,40,40,40,44,41,40,40,40,40,43,40,40,40,40,41,43,40,40,40,40,41,42,40,40,40,40,41,42,40,40,40,40,41,41,40,40,40,40,41,41,40,40,40,40,40,40,40,40,40,40,40,40,40,40,40,40,40,40,40,40,40,40,40,40,40,left
40,40,40,40,40,40,40,40,40,40,40,40,40,40,40,40,40,40,40,40,40,40,40,40,40,40,40,40,40,40,40,40,40,40,40,40,40,40,40,40,50,42,40,40,40,39,46,40,40,40,40,40,40,40,40,40,40,39,36,38,40,40,40,40,34,42,40,40,40,38,22,37,40,40,40,39,26,39,39,40,39,38,33,40,40,40,40,40,38,39,40,40,40,39,41,40,40,40,40,40,43,40,40,40,40,41,44,40,40,40,40,40,44,40,40,40,40,41,44,40,40,40,40,40,43,40,40,40,40,41,42,40,40,40,40,40,42,41,40,40,40,40,42,41,40,40,40,40,42,40,40,40,40,40,41,40,40,40,40,40,41,40,40,40,40,40,41,40,40,40,40,40,40,39,40,40,40,40,40,40,left
40,40,40,38,39,41,40,40,40,39,40,40,40,40,40,40,40,40,40,40,40,40,40,40,40,40,40,40,40,40,40,40,40,40,40,39,40,40,40,40,49,41,40,40,40,40,45,40,40,40,40,40,38,40,40,40,40,39,34,39,40,40,40,40,32,41,40,40,40,38,22,38,40,40,39,40,26,40,39,40,39,39,35,39,40,40,40,40,39,39,40,40,40,39,43,40,40,40,40,41,44,39,40,40,40,39,44,40,40,40,40,41,44,40,40,40,40,40,45,41,40,40,40,41,44,40,40,40,40,41,44,41,40,40,40,41,44,40,40,40,40,40,43,40,40,40,40,40,41,40,40,40,40,40,41,40,40,40,40,40,40,40,40,40,40,40,40,40,40,40,40,40,40,40,40,40,40,40,40,40,left
40,40,40,41,40,40,40,40,40,40,40,40,40,40,40,40,40,40,40,40,40,40,40,40,40,40,40,40,40,40,40,40,40,40,40,40,40,40,40,42,50,41,40,40,40,40,47,41,40,40,40,39,42,40,40,40,40,40,37,38,40,40,40,39,34,41,40,40,40,37,23,37,40,40,40,38,25,39,40,40,39,39,31,38,40,40,40,39,36,40,40,40,40,39,39,40,40,40,40,40,41,40,40,40,40,39,43,41,40,40,40,41,44,40,40,40,40,40,45,41,40,40,40,42,45,40,40,40,40,41,45,41,40,40,40,42,44,40,40,40,40,40,43,41,40,40,40,41,42,40,40,40,40,40,41,40,40,40,40,40,40,39,40,40,40,40,40,40,40,40,40,40,40,40,40,40,40,40,40,40,left
40,40,40,39,40,40,40,40,40,40,40,40,40,40,40,40,40,40,40,40,40,40,40,40,40,40,40,40,40,40,40,40,40,40,40,40,40,40,40,41,51,41,40,40,40,41,46,40,40,40,40,40,39,40,40,40,40,38,35,39,40,40,40,39,32,41,40,40,40,37,20,38,40,40,39,37,25,40,39,40,39,39,33,39,40,40,40,39,38,40,40,40,40,40,41,40,40,40,40,39,44,40,40,40,40,41,44,39,40,40,40,40,46,41,40,40,40,42,46,39,40,40,40,40,46,41,40,40,40,42,44,40,40,40,40,40,44,40,40,40,40,41,42,40,40,40,40,40,41,40,40,40,40,40,40,40,40,40,40,40,40,40,40,40,40,40,40,40,40,40,40,40,40,40,40,40,40,40,40,40,left
40,40,40,40,40,40,40,40,40,40,40,40,40,40,40,40,40,40,40,40,40,40,40,40,40,40,40,40,40,40,40,40,40,40,40,40,40,40,40,41,51,41,40,40,40,40,47,40,40,40,40,40,40,40,40,40,40,39,36,39,40,40,40,39,33,41,40,40,40,38,20,38,40,40,40,38,23,39,39,40,39,38,30,40,40,40,40,39,36,39,40,40,40,40,40,40,40,40,40,40,43,40,40,40,40,40,46,40,40,40,40,41,46,40,40,40,40,41,46,40,40,40,40,41,45,40,40,40,40,41,44,40,40,40,40,41,43,40,40,40,40,40,43,40,40,40,40,40,42,40,40,40,40,40,42,40,40,40,40,40,41,40,40,40,40,40,41,40,40,40,40,40,40,40,40,40,40,40,40,40,left
40,40,40,40,40,40,40,40,40,40,40,40,40,40,40,40,40,40,40,40,40,40,40,40,40,40,40,40,40,40,40,40,40,40,40,40,40,40,40,40,50,41,40,40,40,40,46,40,40,40,40,40,41,40,40,40,40,40,37,38,40,40,40,39,34,41,40,40,40,40,23,37,40,40,40,39,26,39,40,40,39,39,32,39,40,40,40,39,36,39,40,40,40,40,39,40,40,40,40,38,41,41,40,40,40,39,43,40,40,40,40,39,43,41,40,40,40,40,44,40,40,40,40,40,45,41,40,40,40,41,45,40,40,40,40,42,44,40,40,40,40,41,43,40,40,40,40,41,42,40,40,40,40,40,41,40,40,40,40,40,41,40,40,40,40,40,40,40,40,40,40,40,40,40,40,40,40,40,40,40,left
40,40,40,40,40,40,40,40,40,40,40,40,40,40,40,40,40,40,40,40,40,40,40,40,40,40,40,40,40,40,40,40,40,40,40,40,40,40,40,41,50,41,40,40,40,41,46,40,40,40,40,41,40,40,40,40,40,38,36,39,40,40,40,40,33,41,40,40,40,37,21,38,40,40,40,38,26,39,40,40,39,38,32,39,40,40,39,40,38,39,40,40,40,39,42,39,40,40,40,39,45,40,40,40,40,40,46,40,40,40,40,40,46,41,40,40,40,41,46,40,40,40,40,41,45,42,40,40,40,42,43,41,40,40,40,41,42,41,40,40,40,40,41,40,40,40,40,40,41,40,40,40,40,40,40,40,40,40,40,40,40,40,40,40,40,40,40,40,40,40,40,40,40,40,40,40,40,40,40,40,left
40,40,40,40,40,40,40,40,40,40,40,40,40,40,40,40,40,40,40,40,40,40,40,40,40,40,40,40,40,40,40,40,40,40,40,40,40,40,40,42,47,41,40,40,40,40,43,40,40,40,40,40,38,39,40,40,40,39,35,38,40,40,40,39,34,40,40,40,40,37,26,38,40,40,40,39,29,38,40,40,40,39,35,39,40,40,40,39,39,41,40,40,40,42,41,40,40,40,40,39,44,41,40,40,40,39,45,41,40,40,40,39,45,42,40,40,40,41,45,39,40,40,40,39,44,41,40,40,40,41,43,39,40,40,40,41,42,40,40,40,40,41,41,39,40,40,40,40,41,40,40,40,40,40,40,40,40,40,40,40,40,40,40,40,40,40,40,40,40,40,40,40,40,40,40,40,40,40,40,40,left
40,40,40,41,41,41,40,40,40,41,40,40,40,40,40,41,41,40,40,40,40,41,41,40,40,40,40,41,41,40,40,40,40,41,40,40,41,40,41,42,51,42,41,40,41,41,46,42,41,40,41,41,38,41,41,40,41,38,34,38,41,40,41,39,32,42,40,41,40,38,21,37,40,41,40,39,26,39,40,41,40,38,35,39,40,41,40,41,41,39,40,41,40,40,45,41,40,41,40,41,46,42,40,40,40,41,46,42,40,40,40,41,46,42,40,40,40,41,45,41,40,40,40,42,45,41,40,40,40,41,44,40,40,40,40,41,43,41,40,40,40,41,42,40,40,40,40,41,42,40,40,40,40,41,41,40,40,40,40,41,41,40,40,40,40,40,40,41,40,40,40,40,40,40,40,40,40,41,40,40,left
40,41,41,40,40,40,40,40,40,41,40,40,40,40,40,40,40,40,40,40,40,41,40,41,40,40,40,41,40,40,40,40,40,40,40,40,41,40,41,40,48,41,41,40,41,41,42,40,41,40,41,40,37,40,41,40,41,41,34,39,41,40,41,40,33,40,40,41,40,41,24,39,40,40,40,39,31,40,40,41,40,39,37,39,40,40,40,40,41,40,40,41,40,39,44,40,40,40,40,39,45,41,40,41,40,39,45,43,40,40,40,41,45,40,40,41,40,40,45,42,40,40,40,42,45,42,40,40,40,42,44,41,40,40,40,42,43,41,40,40,40,42,43,41,40,40,40,41,42,40,40,40,40,41,41,40,40,40,40,40,41,40,40,40,40,40,41,40,40,40,40,40,40,40,40,40,40,40,40,40,left
40,40,40,40,40,40,40,40,40,40,40,40,40,40,40,40,40,40,40,40,40,40,40,40,40,40,40,40,40,40,40,40,40,41,40,40,41,40,41,40,46,41,41,40,41,41,42,40,41,40,41,39,39,41,41,40,41,40,36,39,41,40,41,40,34,41,40,40,40,40,27,38,40,40,40,39,31,39,40,41,40,40,34,39,40,41,40,43,37,38,40,40,40,38,41,40,40,41,40,37,44,42,40,41,40,40,46,43,40,40,40,42,46,39,40,40,40,38,47,43,40,41,40,44,46,44,40,40,40,45,44,39,40,40,40,41,43,41,40,40,40,41,42,41,40,40,40,41,42,40,40,40,40,40,41,40,40,40,40,41,41,41,40,40,40,41,41,40,40,40,40,40,41,40,40,40,40,41,40,41,left
40,40,40,41,41,40,40,40,40,41,41,41,40,40,40,41,40,41,40,40,40,40,40,40,40,40,40,40,40,40,40,40,40,40,40,41,41,40,41,41,49,42,41,40,41,41,44,41,41,40,41,41,38,41,41,40,41,39,35,39,41,40,41,40,33,41,40,40,40,39,24,39,40,41,40,39,29,40,40,41,40,39,36,39,40,41,40,41,40,39,40,40,40,39,43,41,40,41,40,41,45,40,40,40,40,40,45,41,40,41,40,41,45,40,40,40,40,41,45,42,40,40,40,42,44,41,40,40,40,41,44,41,40,40,40,41,43,41,40,40,40,41,43,41,40,40,40,41,42,40,40,40,40,40,41,41,40,40,40,41,41,40,40,40,40,40,40,40,40,40,40,40,40,41,40,40,40,41,40,40,left
40,40,40,40,41,40,40,40,40,41,41,41,40,40,40,40,41,41,40,40,40,40,40,41,40,40,40,40,40,40,40,40,40,40,40,41,41,40,41,41,48,41,41,40,41,41,43,41,41,40,41,40,39,41,41,40,41,40,37,40,41,40,41,41,35,40,40,40,40,39,26,39,40,41,40,40,31,40,40,41,40,40,35,39,40,41,40,40,38,39,40,40,40,38,40,40,40,41,40,40,41,41,40,40,40,38,43,41,40,41,40,40,44,40,40,40,40,40,45,42,40,41,40,43,45,40,40,40,40,41,46,42,40,40,40,43,45,40,40,40,40,41,44,41,40,40,40,41,43,41,40,40,41,41,42,41,41,40,41,40,41,41,40,40,40,41,40,40,40,40,40,40,40,41,40,40,40,41,40,40,left
40,40,40,39,41,40,40,40,40,40,40,40,40,40,40,40,40,40,40,40,40,40,40,40,40,40,40,40,40,40,40,40,40,40,40,40,41,40,41,41,49,41,41,40,41,41,44,41,41,40,41,40,39,41,41,40,41,40,36,40,41,40,41,40,34,41,40,41,40,38,24,40,40,41,40,40,29,40,40,41,40,39,35,40,40,40,40,40,39,40,40,41,40,39,42,41,40,40,40,41,45,40,40,40,40,41,46,41,40,40,40,42,46,40,40,40,40,42,46,42,40,40,40,42,45,40,40,40,40,41,44,41,40,40,41,41,43,41,40,40,40,41,42,41,40,40,40,41,41,40,40,40,40,40,41,41,40,40,40,40,41,40,40,40,40,40,40,41,40,40,40,40,40,40,40,40,40,40,40,41,left
40,40,40,40,41,41,40,40,40,40,41,41,40,40,40,40,41,40,40,40,40,40,41,40,40,40,40,40,41,40,40,40,40,40,40,41,41,40,41,40,48,40,41,40,41,40,43,41,41,40,41,39,37,40,41,40,41,40,34,40,41,40,41,40,32,40,40,41,40,39,24,40,40,41,40,40,30,40,40,41,40,40,37,40,40,40,40,39,40,40,40,41,40,39,44,41,40,40,40,40,45,41,40,40,40,40,47,41,40,41,40,42,47,41,40,40,40,42,46,41,40,40,40,42,45,40,40,40,40,41,44,41,40,40,40,41,42,40,40,40,40,41,42,41,40,40,40,41,41,40,40,40,40,40,40,41,40,40,40,41,40,40,40,40,40,40,41,41,40,40,40,41,40,40,40,40,40,40,40,41,left
40,40,40,42,41,39,40,40,40,40,41,40,40,40,40,41,40,40,40,40,40,40,41,40,40,40,40,41,40,40,40,40,40,40,40,41,41,40,41,41,50,40,41,40,41,40,44,41,41,40,41,40,39,41,41,40,41,40,36,40,41,40,41,40,34,40,40,41,40,40,23,40,40,41,40,40,29,41,40,40,40,39,35,40,40,41,40,40,39,41,40,40,40,40,43,41,40,40,40,40,46,40,40,40,40,41,46,40,40,40,40,42,46,40,40,40,40,42,45,39,40,41,40,41,44,40,40,40,40,41,43,40,40,40,40,41,42,41,40,40,40,41,42,41,40,40,40,41,41,41,40,40,40,40,41,41,40,40,40,41,41,40,40,40,40,40,40,41,40,40,40,40,40,40,40,40,40,40,41,40,left
40,40,40,41,40,41,40,40,40,40,40,41,40,40,40,40,40,41,40,40,40,40,40,41,40,40,40,40,40,40,40,40,40,40,40,41,41,40,41,41,49,42,41,40,41,41,45,41,41,40,41,41,40,41,41,40,41,40,37,39,41,40,41,40,35,41,40,41,40,39,25,38,40,41,40,39,29,39,40,41,40,39,34,39,40,41,40,40,38,40,40,41,40,39,42,40,40,41,40,40,44,41,40,40,40,40,46,42,40,40,40,42,46,41,40,40,40,41,46,41,40,40,40,42,45,40,40,40,40,41,44,41,40,40,40,42,43,41,40,40,40,41,42,41,40,40,40,41,41,40,40,40,40,40,40,41,40,40,40,41,40,41,40,40,40,40,40,40,40,40,40,41,40,40,40,40,40,40,40,41,left
40,40,41,41,40,40,40,40,40,41,41,40,40,40,40,41,41,40,40,40,40,41,41,40,40,40,40,41,41,40,40,40,40,40,41,40,41,40,41,41,49,42,41,40,41,40,44,41,41,40,41,39,39,40,41,40,41,39,36,39,41,40,41,39,34,42,40,41,40,39,26,39,40,41,40,40,30,39,40,41,40,40,36,40,40,41,40,41,39,40,40,40,40,40,41,41,40,40,40,42,42,40,40,40,40,39,43,41,40,41,40,42,43,40,40,40,40,40,44,42,40,41,40,42,44,40,40,40,40,40,44,42,40,40,40,42,44,40,40,40,40,41,44,42,40,40,40,42,43,40,40,40,40,40,42,41,40,40,40,41,42,40,40,40,40,41,41,40,40,40,40,40,41,41,40,40,40,41,41,40,left
40,40,40,41,40,41,40,40,40,41,40,41,40,40,40,40,40,41,40,40,40,40,40,41,40,40,40,41,40,41,40,40,40,40,40,40,41,40,41,41,49,42,41,40,41,41,45,41,41,40,41,40,39,41,41,40,41,40,36,39,41,40,41,40,34,41,40,41,40,39,24,38,40,41,40,39,28,40,40,41,40,40,34,39,40,41,40,40,38,40,40,40,40,40,41,40,40,41,40,40,43,42,40,40,40,41,44,40,40,40,40,40,45,41,40,40,40,41,45,40,40,41,40,42,45,41,40,40,40,42,45,40,40,40,40,41,44,41,40,40,40,41,43,40,40,40,41,41,43,41,40,40,40,40,42,41,40,40,40,41,41,41,40,40,40,41,41,40,40,40,40,41,41,40,40,40,40,40,40,41,left
40,40,40,40,40,41,40,40,40,40,40,40,40,40,40,40,40,40,40,40,40,40,40,40,40,40,40,40,40,40,40,40,40,40,41,40,41,40,41,41,50,42,41,40,41,40,46,41,41,40,41,39,40,41,41,40,41,40,36,39,41,40,41,40,34,42,40,41,40,40,23,38,40,41,40,40,27,40,40,41,40,41,33,39,40,40,40,40,38,40,40,40,40,40,41,40,40,40,40,40,43,41,40,40,40,40,44,41,40,40,40,41,45,41,40,40,40,40,45,41,40,40,40,42,45,40,40,40,40,42,45,41,40,40,40,42,44,40,40,40,40,41,44,41,40,40,40,41,43,40,40,40,40,40,42,41,40,40,40,41,41,40,40,40,40,40,41,40,40,40,40,40,40,41,40,40,40,40,40,40,right
40,40,40,41,40,40,40,40,40,40,40,41,40,40,40,40,40,41,40,40,40,40,40,41,40,40,40,40,40,40,40,40,40,40,40,41,41,40,41,40,46,41,41,40,41,40,42,41,41,40,41,40,40,40,41,40,41,41,38,39,41,40,41,40,38,42,40,41,40,41,33,39,40,41,40,41,38,40,40,40,40,41,41,40,40,40,40,40,43,41,40,40,40,41,43,41,40,40,40,40,42,41,40,40,40,40,41,41,40,40,40,40,41,40,40,40,40,40,40,41,40,40,40,40,40,40,40,40,40,40,40,40,40,40,40,41,41,40,40,40,40,40,41,40,40,40,40,40,41,40,40,40,40,40,41,40,40,40,40,40,40,40,40,40,40,40,40,40,40,40,40,40,40,41,40,40,40,40,40,40,right
40,40,40,40,40,41,40,40,40,41,40,41,40,40,40,40,40,40,40,40,40,41,40,41,40,40,40,40,40,41,40,40,40,41,40,40,40,40,40,41,37,40,40,40,40,40,38,40,40,40,40,41,40,40,40,40,40,41,41,41,40,40,40,41,42,40,40,41,40,40,48,41,41,40,41,41,48,40,41,40,41,41,47,41,41,40,41,41,45,41,41,40,41,40,43,40,41,40,41,41,40,41,41,40,41,40,38,40,40,40,41,39,36,41,40,40,41,40,36,41,40,40,40,41,36,40,40,40,40,40,37,41,40,40,40,41,38,40,40,40,40,40,39,41,40,40,40,40,40,40,40,40,40,40,40,41,40,40,40,40,40,41,40,40,40,40,40,40,40,40,40,40,40,41,40,40,40,41,41,40,right
40,40,40,41,40,41,40,40,40,41,40,41,40,40,40,40,40,41,40,40,40,41,41,40,40,40,40,40,40,41,40,40,40,40,40,41,40,40,40,40,35,39,40,40,40,41,38,39,40,40,40,41,41,40,40,40,40,40,43,41,40,41,40,40,44,40,41,41,41,41,50,41,41,40,41,40,48,42,41,40,41,41,46,42,41,40,41,41,44,40,41,40,41,41,42,40,41,40,41,41,41,40,41,40,41,40,39,40,40,40,41,40,37,40,41,40,41,40,36,41,40,41,40,40,37,40,40,40,40,40,36,41,40,40,40,41,37,40,40,40,40,40,39,41,40,40,40,40,39,40,40,40,40,40,39,41,40,40,40,40,40,40,40,40,40,40,40,41,40,40,40,40,40,40,40,40,40,40,40,41,right
40,40,40,40,40,40,40,40,40,40,40,40,40,40,40,40,40,40,40,40,40,40,40,40,40,40,40,40,40,40,40,40,40,40,40,40,40,40,40,41,36,40,40,40,40,40,38,40,40,40,40,41,40,40,40,40,40,41,43,41,40,40,40,41,44,39,41,41,41,41,50,41,41,40,41,42,49,41,41,40,41,40,46,42,41,40,41,41,44,40,41,40,41,39,41,41,41,40,41,41,39,40,41,40,41,40,37,41,41,40,41,40,36,40,40,40,41,40,36,41,40,40,41,41,36,40,40,40,40,40,36,40,40,40,40,40,37,41,40,40,40,41,39,40,40,40,40,40,39,41,40,40,40,40,40,40,40,40,40,40,40,41,40,40,40,40,41,40,40,40,40,40,41,41,40,40,40,40,41,41,right
40,40,40,41,41,40,40,40,40,40,41,40,40,40,40,40,41,40,40,40,40,40,41,40,40,40,40,40,40,40,40,40,40,40,40,40,40,40,40,41,36,40,40,40,40,40,38,40,40,40,40,40,41,41,40,40,40,40,43,42,40,40,40,40,45,39,40,40,41,41,52,41,41,40,41,42,51,41,41,40,41,42,48,41,41,40,41,42,45,42,41,40,41,41,42,39,41,40,41,40,37,41,41,40,41,39,35,40,41,40,41,39,34,41,40,40,40,39,34,39,40,40,40,40,35,40,40,40,40,40,37,40,40,40,40,40,38,40,40,40,40,41,39,40,40,40,40,41,40,40,40,40,40,40,40,41,40,40,40,40,41,41,40,40,40,40,41,40,40,40,40,40,41,41,40,40,40,40,41,40,right
40,40,40,40,41,40,40,40,40,41,41,40,40,40,40,40,40,40,40,40,40,40,40,41,40,40,40,40,40,41,41,40,41,40,38,41,41,40,40,40,31,41,40,40,40,40,33,41,40,40,40,41,35,39,40,40,40,40,39,40,40,40,40,41,43,40,40,40,40,41,52,41,40,40,40,41,52,39,41,40,41,40,51,41,41,40,41,41,49,41,41,40,41,42,47,41,41,40,41,42,45,41,41,40,41,41,42,41,41,40,41,40,39,41,41,40,41,40,36,41,40,40,41,39,35,40,40,40,41,39,35,41,40,40,40,40,36,40,40,40,40,40,37,40,40,40,40,40,38,40,40,40,40,41,39,40,40,40,40,40,40,40,40,40,40,41,40,40,40,40,40,40,40,41,40,40,40,40,40,40,right
40,40,40,40,40,41,40,40,40,40,40,41,40,40,40,40,40,41,40,40,40,40,40,41,40,40,40,41,41,41,40,40,40,41,41,40,40,40,40,41,34,41,40,40,40,41,37,41,40,40,40,41,39,40,40,40,40,41,41,40,40,40,40,40,43,41,40,41,40,40,51,39,40,40,41,39,50,40,41,40,41,40,49,39,41,41,41,40,46,40,41,41,41,41,43,40,41,40,41,41,40,41,41,40,41,41,37,41,40,40,41,41,36,40,40,40,41,41,36,41,40,40,40,40,36,41,40,40,40,40,37,41,40,40,40,40,38,41,40,40,40,40,38,41,40,40,40,40,39,41,40,40,40,40,40,40,40,40,40,40,40,40,40,40,40,40,40,41,40,40,40,40,40,40,40,40,40,40,40,40,right
40,40,40,41,41,40,40,40,40,41,41,40,40,40,40,40,41,40,40,40,40,40,41,40,40,40,40,40,41,40,40,40,40,40,40,40,40,40,40,41,34,41,40,40,40,41,36,41,40,40,40,40,39,40,40,40,40,40,40,40,40,40,40,40,42,41,40,40,40,40,51,40,41,40,41,40,50,40,41,41,41,41,49,40,41,40,41,41,48,40,41,40,41,41,46,40,41,40,41,42,42,41,41,40,41,41,40,41,41,40,41,41,37,41,40,40,41,41,35,41,41,40,41,40,34,41,40,40,40,39,35,40,40,40,40,39,36,41,40,40,40,40,38,40,40,40,40,40,38,41,40,40,40,41,39,41,40,40,40,40,40,41,40,40,40,41,40,40,40,40,40,40,40,41,40,40,40,41,40,40,right
40,40,41,40,41,40,40,40,40,40,40,40,40,40,40,40,41,40,40,40,40,40,41,40,40,40,40,40,41,40,40,40,40,40,40,40,40,40,40,41,36,40,40,40,40,41,38,40,40,40,40,40,40,40,40,40,40,40,41,40,40,40,40,40,43,40,40,40,41,40,48,40,41,41,41,41,48,41,41,40,41,41,47,40,41,40,41,41,46,40,41,40,41,41,44,41,41,40,41,41,41,40,41,40,41,40,38,41,41,41,41,41,37,41,40,40,41,40,36,40,40,40,40,40,36,41,40,40,40,40,37,41,40,40,40,40,38,41,40,40,40,40,38,40,40,40,40,40,39,41,40,40,40,40,39,40,40,40,40,40,40,40,40,40,40,40,40,40,40,40,40,40,40,41,40,40,40,40,40,41,right
40,40,40,41,40,40,40,40,40,41,40,40,40,40,40,40,40,40,40,40,40,40,40,40,40,40,40,40,40,40,40,40,40,40,40,41,40,40,40,39,34,41,40,40,40,41,37,41,40,40,40,41,38,41,40,40,40,40,40,40,40,40,40,40,42,41,40,40,41,42,49,39,40,40,41,40,49,39,41,40,41,41,48,40,41,40,41,41,46,40,41,40,41,41,44,40,41,40,41,41,43,40,41,40,41,41,40,40,41,40,41,40,38,41,41,40,41,41,37,41,40,40,41,40,37,41,40,40,41,40,37,41,40,40,40,40,37,41,40,40,40,40,38,41,40,40,40,40,38,41,40,40,40,40,39,40,40,40,40,40,39,40,40,40,40,40,40,40,40,40,40,40,40,40,40,40,40,40,40,40,right
40,40,40,40,41,40,40,40,40,40,41,40,40,40,40,40,40,40,40,40,40,40,40,40,40,40,40,40,40,40,40,40,40,40,40,40,40,40,40,41,33,41,40,40,40,42,36,40,40,40,40,40,39,41,40,40,40,40,42,40,40,40,40,40,43,41,40,40,41,39,52,39,41,41,41,39,50,40,41,41,41,40,48,39,41,41,41,41,46,39,41,41,41,42,44,40,41,40,41,42,42,40,41,40,41,41,39,41,41,40,41,41,37,41,41,40,41,41,35,41,40,40,41,40,35,41,40,40,41,40,36,41,40,40,40,40,37,40,40,40,40,40,37,40,40,40,40,40,39,40,40,40,40,40,39,40,40,40,40,40,40,40,40,40,40,40,40,40,40,40,40,40,40,41,40,40,40,40,40,41,right
40,40,40,41,40,40,40,40,40,40,40,40,40,40,40,40,40,40,40,40,40,40,40,40,40,40,40,40,39,40,41,40,41,40,38,40,40,41,40,39,33,41,40,40,40,40,36,41,40,40,40,42,38,40,40,40,40,41,41,40,40,40,40,40,43,41,40,40,40,42,50,41,40,40,41,41,50,39,40,40,41,39,49,40,41,40,41,41,48,40,41,40,41,41,46,40,41,40,41,42,44,40,41,40,41,41,42,40,41,40,41,41,40,40,41,41,41,41,38,41,41,40,41,42,37,41,40,40,41,40,37,41,40,40,41,40,36,41,40,40,41,40,36,41,40,40,40,40,36,41,40,40,40,39,37,41,40,40,40,39,38,41,40,40,40,40,39,40,40,40,40,40,40,40,40,40,40,40,41,40,right
40,40,40,40,41,40,40,40,40,40,41,40,40,40,40,41,40,40,40,40,40,40,40,40,40,40,40,40,40,40,40,40,40,40,40,41,40,40,40,40,36,41,40,40,40,39,38,40,40,40,40,40,41,40,40,40,40,41,43,40,40,40,40,41,44,40,41,41,41,41,50,40,41,40,41,42,49,40,41,40,41,42,46,40,41,40,41,41,44,41,41,40,41,41,41,41,41,40,41,41,39,41,41,40,41,41,37,41,40,40,41,40,37,41,40,40,41,40,36,41,40,40,40,40,37,40,40,40,40,39,36,40,40,40,40,40,38,40,40,40,40,40,38,40,40,40,40,40,39,40,40,40,40,40,40,40,40,40,40,41,40,41,40,40,40,41,41,40,40,40,40,40,41,40,40,40,40,40,41,40,right
40,40,40,40,40,40,40,40,40,40,40,40,40,40,40,40,40,40,40,40,40,40,40,40,40,40,40,40,40,40,40,40,40,40,40,40,40,40,40,41,38,40,40,40,40,40,40,41,40,40,40,40,42,41,40,40,40,40,43,40,40,40,40,40,45,40,41,40,41,40,49,40,41,40,41,42,48,40,41,40,41,41,45,40,41,40,41,42,43,40,41,40,41,41,41,41,41,40,41,41,38,40,40,40,41,41,36,42,41,40,41,41,36,41,40,40,40,40,36,40,40,40,41,40,36,41,40,40,40,40,37,40,40,40,40,39,38,40,40,40,40,40,38,40,40,40,40,40,39,40,40,40,40,40,40,40,40,40,40,41,40,41,40,40,40,41,40,40,40,40,40,40,41,41,40,40,40,40,41,40,right
40,40,40,41,40,41,40,40,40,41,40,40,40,40,40,40,40,40,40,40,40,41,40,40,40,40,40,40,40,41,40,40,40,40,40,40,40,40,40,40,33,40,40,40,40,40,36,40,40,40,40,40,39,40,40,40,40,40,41,40,40,40,40,40,43,41,40,41,41,41,51,40,41,40,41,41,49,41,41,40,41,42,48,41,41,40,41,42,45,41,41,40,41,42,44,41,41,40,41,42,42,41,41,40,41,42,40,40,41,40,41,40,38,41,41,40,41,40,37,40,40,40,41,40,36,41,40,40,41,39,36,40,40,40,40,39,36,41,40,40,40,40,37,40,40,40,40,40,38,40,40,40,40,40,39,41,40,40,40,40,40,40,40,40,40,40,40,41,40,40,40,40,40,40,40,40,40,41,40,41,right
40,40,40,41,40,40,40,40,40,40,41,40,40,40,40,40,41,40,40,40,40,40,41,40,40,40,40,40,41,40,40,40,40,40,41,40,40,40,40,39,34,41,40,40,40,40,36,40,40,40,40,42,39,40,40,40,40,40,42,40,40,40,40,40,43,41,40,41,40,42,52,40,41,40,41,41,50,40,41,40,41,40,49,41,41,40,41,41,45,40,41,40,41,42,43,41,41,40,41,41,40,41,41,40,41,41,37,40,40,40,41,40,36,41,40,40,41,40,36,40,40,40,40,39,36,40,40,40,40,40,37,41,40,40,40,40,38,40,40,40,40,40,39,41,40,40,40,40,39,40,40,40,40,41,40,40,40,40,40,40,40,40,40,40,40,40,40,41,40,40,40,40,40,40,40,40,40,41,40,40,right
40,40,40,41,41,40,40,40,40,40,40,40,40,40,40,40,40,41,40,40,40,40,40,40,40,40,40,40,40,40,40,40,40,40,40,40,40,40,40,41,36,40,40,40,40,41,38,40,40,40,40,40,40,40,40,40,40,40,42,40,40,40,40,40,44,40,40,40,41,40,51,41,41,40,41,40,49,41,41,40,41,42,48,40,41,40,41,42,45,41,41,40,41,42,43,40,41,40,41,41,40,41,41,40,41,41,38,41,41,40,41,41,36,41,40,40,41,40,36,40,40,40,41,39,36,41,40,40,41,40,36,41,40,40,40,40,36,40,40,40,40,40,37,40,40,40,40,40,38,40,40,40,40,40,39,40,40,40,40,40,40,40,40,40,40,40,40,40,40,40,40,40,41,40,40,40,40,40,41,40,right
40,40,40,41,40,40,40,40,40,41,40,40,40,40,40,40,40,40,40,40,40,40,40,40,40,40,40,40,40,40,40,40,40,40,41,40,40,40,40,40,34,41,40,40,40,40,36,40,40,40,40,41,39,40,40,40,40,41,42,40,40,41,40,40,43,41,40,41,40,41,52,41,41,41,41,41,50,40,41,40,41,40,49,41,41,40,41,41,47,42,41,40,41,42,45,41,41,40,41,41,42,41,41,40,41,41,39,41,41,40,41,41,37,41,40,40,41,40,36,41,40,40,41,40,35,40,40,40,41,39,35,40,40,40,40,39,36,40,40,40,40,39,37,40,40,40,40,40,38,40,40,40,40,40,39,40,40,40,40,40,40,41,40,40,40,40,40,40,40,40,40,41,41,40,40,40,40,40,41,41,right
40,40,40,41,41,40,40,40,40,41,41,40,40,40,40,41,41,40,40,40,40,41,40,40,40,40,40,41,40,40,40,40,40,40,40,40,40,40,40,41,35,40,40,40,40,41,38,40,40,40,40,39,40,41,40,40,40,40,42,40,40,40,40,41,43,41,40,40,41,40,50,39,41,40,41,40,49,41,41,40,41,42,47,40,41,40,41,41,46,41,41,40,41,41,44,40,41,40,41,41,41,41,41,40,41,41,39,41,41,40,41,41,37,41,40,40,41,40,36,41,40,40,41,40,36,41,40,40,41,40,36,41,40,40,40,40,36,40,40,40,40,40,37,40,40,40,40,40,38,40,40,40,40,40,39,40,40,40,40,40,40,40,40,40,40,40,40,41,40,40,40,40,40,40,40,40,40,40,40,40,right
40,41,40,40,40,41,40,40,40,40,41,40,40,40,40,40,41,41,40,40,40,40,41,40,40,40,40,40,40,41,40,40,40,40,40,40,40,40,40,41,35,40,40,40,40,40,37,40,40,40,40,41,39,40,40,40,40,40,41,41,40,40,40,40,43,40,40,40,40,40,50,41,41,40,41,41,49,40,41,40,41,41,48,40,41,40,41,41,46,40,41,40,41,41,43,40,41,40,41,41,40,41,41,40,41,41,38,41,41,40,41,41,36,41,40,40,41,40,36,41,40,40,40,40,36,41,40,40,40,40,36,41,40,40,40,40,37,40,40,40,40,40,38,40,40,40,40,40,39,40,40,40,40,40,40,40,40,40,40,40,40,40,40,40,40,40,40,40,40,40,40,40,40,40,40,40,40,40,40,40,right
40,40,40,40,41,41,40,40,40,40,41,41,40,40,40,40,40,41,40,40,40,40,41,41,40,40,40,40,41,41,40,40,40,40,40,40,40,40,40,41,35,40,40,40,40,41,37,40,40,40,40,41,39,39,40,40,40,40,42,40,40,40,40,40,43,40,40,41,41,40,51,40,41,40,41,40,49,40,41,40,41,41,49,41,41,40,41,41,46,41,41,40,41,42,44,41,41,40,41,42,41,41,41,40,41,42,40,41,41,40,41,41,37,41,41,40,41,40,36,41,40,40,41,40,35,41,40,40,40,39,35,40,40,40,40,39,36,41,40,40,40,40,37,40,40,40,40,40,38,40,40,40,40,40,39,40,40,40,40,40,40,40,40,40,40,41,41,40,40,40,40,40,41,40,40,40,40,41,41,41,right
40,40,40,40,40,40,40,40,40,40,40,40,40,40,40,40,40,40,40,40,40,40,40,40,40,40,40,40,40,40,40,40,40,40,41,40,40,40,40,41,36,40,40,40,40,41,38,40,40,40,40,41,41,40,40,40,40,40,43,41,40,40,40,40,44,40,40,40,41,40,50,40,41,40,41,40,48,41,41,41,41,41,47,41,41,40,41,40,44,41,41,40,41,42,43,41,41,40,41,40,40,42,41,40,41,41,39,40,40,40,41,41,37,41,40,40,41,41,37,39,40,40,41,40,36,40,40,40,41,41,36,40,40,40,40,40,36,40,40,40,40,40,37,41,40,40,40,40,38,40,40,40,40,40,39,40,40,40,40,40,40,40,40,40,40,40,40,40,40,40,40,40,41,40,40,40,40,40,40,40,right
40,40,40,41,41,41,40,40,40,40,40,40,40,40,40,40,40,40,40,40,40,40,41,40,40,40,40,40,41,41,40,40,40,40,40,40,40,40,40,41,34,40,40,40,40,42,37,40,40,40,40,41,40,40,40,40,40,40,42,40,40,40,40,40,43,41,40,40,41,39,52,40,41,40,41,39,50,41,41,41,41,40,48,41,41,40,41,41,45,41,41,40,41,42,44,41,41,40,41,42,41,41,41,40,41,41,39,41,41,40,41,41,37,40,40,40,41,41,36,40,40,40,41,40,36,40,40,40,40,40,36,40,40,40,40,40,36,40,40,40,40,40,37,40,40,40,40,40,38,40,40,40,40,40,39,40,40,40,40,40,40,40,40,40,40,40,40,40,40,40,40,40,40,40,40,40,40,40,40,41,right
40,40,40,41,40,40,40,40,40,41,40,40,40,40,40,40,40,40,40,40,40,40,40,40,40,40,40,40,40,40,40,40,40,40,40,41,40,40,40,41,34,40,40,41,40,40,37,40,40,40,40,40,40,40,40,40,40,40,42,41,40,40,40,40,44,40,40,40,40,40,52,41,41,40,41,40,51,42,41,41,41,41,48,41,41,40,41,41,45,41,41,40,41,41,42,40,41,40,41,41,40,41,41,40,41,41,37,40,41,40,41,41,36,41,40,40,41,41,36,40,40,40,41,40,36,40,40,40,40,40,36,41,40,40,40,40,37,40,40,40,40,40,38,41,40,40,40,40,39,40,40,40,40,40,40,40,40,40,40,40,40,40,40,40,40,40,40,40,40,40,40,40,40,40,40,40,40,40,40,40,right
40,40,40,40,41,41,40,40,40,41,41,41,40,40,40,40,40,40,40,40,40,40,40,40,40,40,40,40,40,41,40,40,40,40,40,40,40,41,40,41,36,39,40,41,40,40,38,40,40,41,40,41,40,40,40,40,40,40,42,42,40,40,40,40,44,39,40,40,41,40,50,43,41,40,41,41,49,41,41,40,41,40,46,42,41,40,41,42,45,41,41,40,41,41,43,41,41,40,41,42,40,40,41,40,41,41,38,41,41,40,41,41,37,40,40,40,41,40,37,41,40,40,41,40,37,40,40,40,40,40,37,40,40,40,40,40,37,40,40,40,40,40,38,40,40,40,40,40,38,40,40,40,40,40,39,40,40,40,40,40,40,40,40,40,40,40,40,40,40,40,40,40,41,40,40,40,40,40,41,41,right
40,40,40,41,41,40,40,40,40,40,40,40,40,40,40,40,40,40,40,40,40,40,40,40,40,40,40,40,40,40,40,40,40,40,40,40,40,41,40,40,34,40,40,40,40,41,37,40,40,40,40,40,39,41,40,40,40,41,42,40,40,40,40,40,44,40,40,40,40,40,52,40,41,40,41,40,51,41,41,40,41,41,49,40,41,40,41,40,46,41,41,40,41,40,43,40,41,40,41,40,40,41,41,41,41,42,38,40,41,40,41,41,37,41,41,40,41,41,36,41,40,40,41,42,36,41,40,40,41,41,36,40,40,40,41,39,37,41,40,40,40,40,37,40,40,40,40,40,38,41,40,40,40,40,39,40,40,40,40,40,39,40,40,40,40,40,40,41,40,40,40,40,40,40,40,40,40,40,41,41,right
40,41,40,41,40,41,40,40,40,41,41,41,40,40,40,41,41,41,40,40,40,41,40,41,40,40,40,41,40,41,40,40,40,41,40,41,40,40,40,41,34,40,40,40,40,41,37,40,40,40,40,40,40,41,40,40,40,40,42,41,40,40,40,40,44,40,40,40,41,39,52,40,41,40,41,39,51,41,41,41,41,41,48,41,41,41,41,42,45,41,41,40,41,42,43,41,41,40,41,42,39,41,41,40,41,42,37,41,41,40,41,41,36,41,40,40,41,40,36,41,40,40,40,40,35,41,40,40,41,40,36,40,40,40,40,39,36,40,40,40,40,40,37,40,40,40,40,40,38,40,40,40,40,40,39,40,40,40,40,40,40,40,40,40,40,40,40,40,40,40,40,40,40,41,40,40,40,40,41,40,right
40,40,40,40,40,40,40,40,40,40,40,40,40,40,40,40,40,40,40,40,40,40,40,40,40,40,40,40,40,40,40,40,40,40,40,41,40,40,40,41,36,39,40,40,40,41,38,40,40,40,40,40,40,40,40,40,40,40,42,42,40,41,40,40,43,39,40,40,41,40,50,42,41,40,41,40,50,42,41,40,41,40,48,41,41,40,41,41,46,41,41,40,41,42,44,40,41,40,41,42,42,40,41,40,41,42,39,40,41,40,41,41,37,40,41,40,41,40,36,41,40,40,41,40,35,40,40,40,41,40,35,40,40,40,40,39,36,40,40,40,40,39,37,41,40,40,40,40,38,40,40,40,40,40,39,40,40,40,40,40,40,40,40,40,40,41,40,40,40,40,40,41,41,40,40,40,40,41,41,40,right
41,40,40,41,41,40,41,40,40,40,40,41,41,40,40,40,41,41,41,40,40,40,42,41,40,40,40,40,41,40,40,40,40,41,41,41,40,40,40,41,33,40,40,40,40,42,37,39,40,40,40,40,39,40,40,40,40,41,41,40,40,40,40,39,42,41,41,40,41,39,52,39,41,40,41,38,49,43,41,40,41,41,47,40,41,40,41,41,45,41,41,40,41,42,43,41,41,40,41,42,41,41,41,40,41,41,39,41,41,40,41,41,38,41,40,40,41,40,37,41,41,40,41,40,37,41,40,40,41,40,37,41,40,40,41,40,37,40,40,40,40,40,37,40,40,40,40,40,38,40,40,40,40,40,39,40,40,40,40,40,39,40,40,40,40,40,40,40,40,40,40,40,40,41,40,40,40,41,40,40,right
40,40,40,40,40,40,40,40,40,40,41,40,40,40,40,40,40,40,40,40,40,40,40,40,40,40,40,40,40,40,40,40,40,40,40,41,40,40,40,41,35,39,40,40,40,41,38,39,40,40,40,41,39,40,40,40,40,40,41,42,40,40,40,40,43,38,40,40,41,39,49,42,41,40,41,39,48,42,41,40,41,40,47,41,41,40,41,41,45,41,41,40,41,42,44,41,41,40,41,42,42,41,41,40,41,42,41,40,41,40,41,41,40,41,41,40,41,41,39,41,40,40,41,40,38,41,41,40,41,40,37,41,40,40,41,40,36,41,40,40,41,40,36,40,40,40,40,39,37,40,40,40,40,40,38,40,40,40,40,40,39,40,40,40,40,40,39,40,40,40,40,40,40,40,40,40,40,40,40,40,right
40,40,40,40,41,40,40,40,40,41,40,40,40,40,40,40,40,40,40,40,40,40,41,40,40,40,40,40,41,40,40,40,40,40,40,41,40,40,40,40,33,40,40,40,40,40,36,40,40,40,40,40,39,40,40,40,40,41,41,40,40,40,40,40,42,40,40,40,40,40,52,40,40,41,41,41,50,41,41,40,41,42,48,40,41,40,41,41,47,42,41,40,41,42,45,40,41,40,41,42,43,41,41,40,41,41,41,41,41,40,41,41,39,41,41,40,41,40,37,41,41,40,41,40,36,40,40,40,41,40,36,41,40,40,41,40,36,40,40,40,40,39,36,40,40,40,40,39,37,40,40,40,40,40,38,40,40,40,40,40,39,40,40,40,40,40,39,40,40,40,40,40,40,40,40,40,40,40,40,40,right
40,40,40,40,40,40,40,40,40,40,41,40,40,40,40,40,41,40,40,40,40,41,41,40,40,40,40,40,41,40,40,40,40,41,41,40,40,40,40,45,35,38,40,40,40,42,38,39,40,40,40,40,40,40,40,40,40,39,42,43,40,40,40,39,43,38,40,41,41,35,50,43,41,41,41,39,49,42,41,40,41,41,48,42,41,40,41,42,46,41,41,40,41,42,45,40,41,40,41,41,43,41,41,40,41,43,40,40,41,40,41,42,37,40,41,40,41,40,36,41,40,40,41,40,34,40,40,40,41,40,34,40,40,40,40,38,35,41,40,40,40,38,37,41,40,40,40,40,38,40,40,40,40,40,39,40,40,40,40,41,40,41,40,40,40,41,40,40,40,40,40,40,40,41,40,40,40,40,40,41,right
40,40,40,41,41,41,40,40,40,41,41,41,40,40,40,41,41,40,40,40,40,41,41,40,40,40,40,40,41,41,40,40,40,40,40,40,40,40,40,41,35,40,40,40,40,40,37,40,40,40,40,41,39,40,40,40,40,41,42,41,40,40,40,40,43,39,40,41,40,39,51,41,41,40,41,41,50,39,41,40,41,40,49,41,41,40,41,41,46,41,41,40,41,41,45,40,41,40,41,41,43,41,41,40,41,42,40,41,41,40,41,41,38,41,41,40,41,40,36,41,40,40,41,41,35,41,40,40,41,40,34,40,40,40,40,39,35,41,40,40,40,39,36,41,40,40,40,40,38,40,40,40,40,40,39,40,40,40,40,40,39,40,40,40,40,40,40,40,40,40,40,40,40,41,40,40,40,40,40,40,right
40,40,40,40,41,41,40,40,40,41,41,40,40,40,40,40,41,40,40,40,40,40,41,40,40,40,40,40,41,41,40,40,40,40,40,40,40,40,40,41,35,40,40,40,40,42,37,39,40,40,40,40,39,40,40,40,40,40,41,41,40,40,40,40,42,40,40,41,40,39,49,39,40,40,41,39,48,43,41,40,41,41,48,41,41,40,41,41,46,41,41,40,41,41,45,40,41,40,41,41,43,40,41,40,41,41,41,40,41,40,41,41,39,41,41,40,41,41,37,40,40,40,41,40,36,41,40,40,41,40,36,40,40,40,40,40,36,41,40,40,40,40,36,41,40,40,40,40,38,40,40,40,40,40,39,40,40,40,40,40,40,40,40,40,40,40,40,41,40,40,40,40,40,41,40,40,40,41,40,40,right
40,40,40,41,41,40,40,40,40,40,41,40,40,40,40,40,41,40,40,40,40,40,41,40,40,40,40,40,40,40,40,40,40,40,40,41,40,40,40,41,36,40,40,40,40,40,38,40,40,40,40,40,40,40,40,40,40,40,42,40,40,40,40,40,43,40,40,40,40,40,49,40,41,40,41,40,48,40,41,40,41,41,47,39,41,41,41,41,45,40,41,41,41,41,44,40,41,40,41,42,42,40,41,40,41,42,40,41,41,40,41,41,38,41,41,40,41,41,37,41,41,40,41,40,36,41,40,40,41,40,36,41,40,40,40,40,36,41,40,40,40,40,37,41,40,40,40,39,38,41,40,40,40,40,39,41,40,40,40,40,39,40,40,40,40,40,40,41,40,40,40,40,40,40,40,40,40,41,40,40,right
40,40,40,40,41,40,40,40,40,40,41,40,40,40,40,40,41,40,40,40,40,40,40,40,40,40,40,40,40,40,40,40,40,40,40,41,40,40,40,41,39,40,40,40,40,41,40,40,40,40,40,41,42,40,40,40,40,41,43,40,40,40,40,41,44,40,41,40,41,40,47,40,41,40,41,41,46,40,41,40,41,41,45,40,41,40,41,41,44,41,41,40,41,41,41,40,41,40,41,41,40,41,41,40,41,40,38,41,41,40,41,40,37,41,40,40,41,40,36,41,40,40,41,40,37,41,40,40,40,40,37,41,40,40,40,40,38,40,40,40,40,40,39,41,40,40,40,40,39,40,40,40,40,40,40,41,40,40,40,40,40,40,40,40,40,40,40,41,40,40,40,40,40,41,40,40,40,40,40,40,right
40,40,40,40,40,41,40,40,40,40,40,41,40,40,40,40,40,40,40,40,40,41,40,40,40,40,40,40,40,40,40,40,41,40,40,41,40,40,40,41,35,40,40,40,40,42,37,40,40,40,40,41,39,40,40,40,40,40,41,40,40,40,40,40,43,41,40,40,40,40,49,40,40,40,41,39,49,41,41,40,41,41,48,40,41,40,41,41,45,40,41,40,41,41,44,40,41,40,41,41,42,40,41,40,41,41,40,40,41,40,41,41,39,41,41,40,41,41,38,40,40,40,41,40,37,41,40,40,41,40,37,41,40,40,41,40,37,41,40,40,40,39,37,41,40,40,40,39,37,41,40,40,40,40,38,40,40,40,40,40,39,41,40,40,40,40,40,40,40,40,40,40,40,40,40,40,40,40,41,40,right
40,41,40,40,40,41,40,40,40,40,40,40,40,40,40,41,40,40,40,40,40,40,40,40,40,40,40,41,40,41,40,40,40,41,41,40,40,40,40,41,33,40,40,40,40,41,36,40,40,40,40,40,39,40,40,40,40,40,41,40,40,40,40,40,43,41,40,41,40,39,52,39,41,41,41,39,51,41,41,41,41,41,49,41,41,40,41,41,46,41,41,40,41,42,43,40,41,40,41,42,40,41,41,40,41,41,38,40,41,40,41,41,36,41,40,40,41,40,36,41,40,40,41,40,36,41,40,40,41,40,36,41,40,40,40,40,37,41,40,40,40,40,37,40,40,40,40,40,38,40,40,40,40,40,39,40,40,40,40,40,40,40,40,40,40,41,40,40,40,40,40,40,41,41,40,40,40,40,40,40,right
40,40,40,41,41,41,40,40,40,40,41,41,40,40,40,40,41,40,40,40,40,41,41,40,40,40,40,40,41,40,40,40,40,40,41,41,40,40,40,42,34,41,40,40,40,42,36,41,40,40,40,40,38,40,40,40,40,41,41,40,40,40,40,40,43,41,40,40,40,39,51,39,41,40,41,39,50,40,41,41,41,40,49,39,41,41,41,39,46,40,41,41,41,42,44,40,41,40,41,42,41,41,41,40,41,42,38,40,41,40,41,41,37,42,41,40,41,42,37,41,40,40,40,40,36,41,40,40,41,40,37,41,40,40,40,40,37,41,40,40,41,40,38,41,40,40,40,40,38,40,40,40,40,40,39,41,40,40,40,40,39,40,40,40,40,41,40,41,40,40,40,41,40,40,40,40,40,40,40,40,right
40,40,40,40,41,40,40,40,40,40,40,40,40,40,40,40,40,40,40,40,40,40,40,40,40,40,40,40,40,40,40,40,40,40,40,40,40,40,40,42,37,39,40,40,40,41,38,40,40,40,40,40,40,40,40,40,40,40,42,42,40,40,40,40,43,39,40,40,41,38,49,42,41,40,41,40,49,41,41,40,41,41,47,41,41,40,41,42,45,41,41,40,41,42,44,40,41,40,41,42,41,40,41,40,41,42,39,40,41,40,41,41,37,40,41,40,41,40,36,41,40,40,41,39,35,40,40,40,41,39,36,41,40,40,40,39,36,40,40,40,40,40,37,40,40,40,40,40,38,40,40,40,40,40,40,40,40,40,40,40,40,40,40,40,40,40,40,40,40,40,40,40,40,40,40,40,40,41,41,41,right
40,40,40,40,40,40,40,40,40,41,40,41,40,40,40,40,40,40,40,40,40,40,40,40,40,40,40,40,40,40,40,40,40,41,40,41,40,40,40,39,36,40,40,40,40,41,38,40,40,40,40,41,40,40,40,40,40,40,42,40,40,40,40,40,43,40,40,40,40,42,48,40,41,40,41,40,48,41,41,40,41,41,47,41,41,40,41,42,46,40,41,40,41,41,44,40,41,40,41,42,42,40,41,40,41,41,40,40,41,40,41,40,37,41,41,40,41,39,35,41,40,40,41,40,34,40,40,40,41,39,35,42,40,40,40,40,36,40,40,40,40,40,37,41,40,40,40,40,39,40,40,40,40,40,40,40,40,40,40,41,40,40,40,40,40,40,40,40,40,40,40,40,40,40,40,40,40,40,41,40,right
40,40,40,41,40,41,40,40,40,40,41,41,40,40,40,40,41,40,40,40,40,40,40,40,40,40,40,40,40,40,40,40,40,40,40,40,40,40,40,42,36,40,40,40,40,41,39,41,40,40,40,41,41,40,40,40,40,40,42,41,40,40,40,40,44,39,40,40,41,38,50,41,41,40,41,40,49,40,41,41,41,40,47,41,41,41,41,42,46,40,41,40,41,42,42,42,41,40,41,42,39,40,41,40,41,41,37,41,41,40,41,41,35,41,40,40,41,40,35,40,40,40,40,40,35,40,40,40,40,39,36,40,40,40,40,40,37,40,40,40,40,40,38,40,40,40,40,40,39,40,40,40,40,40,40,41,40,40,40,41,40,40,40,40,40,41,40,40,40,40,40,40,40,40,40,40,40,41,40,40,right
40,40,40,40,41,41,40,40,40,41,41,40,40,40,40,40,41,40,40,40,40,40,40,40,40,40,40,40,40,41,40,40,40,40,41,40,40,40,40,40,36,40,40,40,40,39,38,41,40,40,40,41,40,40,40,40,40,41,42,40,40,40,40,40,44,40,41,40,41,40,50,41,41,40,41,42,48,39,41,40,41,41,47,40,41,41,41,42,44,40,41,40,41,42,42,41,41,40,41,42,40,41,41,40,41,41,38,41,41,40,41,40,36,41,40,40,41,39,36,41,40,40,40,39,36,41,40,40,40,40,36,40,40,40,40,39,37,41,40,40,40,40,38,40,40,40,40,40,39,40,40,40,40,40,40,40,40,40,40,40,40,41,40,40,40,41,41,40,40,40,40,41,40,40,40,40,40,40,40,41,right
40,41,40,40,41,40,40,40,40,41,41,40,40,40,40,41,40,40,40,40,40,41,40,40,40,40,40,41,40,40,40,40,40,41,40,41,40,40,40,41,35,39,40,40,40,39,37,40,40,40,40,40,39,40,40,40,40,40,42,41,40,40,40,41,43,39,41,40,41,40,50,42,41,40,41,42,48,40,41,40,41,41,47,41,41,40,41,41,45,41,41,40,41,42,44,40,41,40,41,42,41,41,41,40,41,42,39,41,41,40,41,40,37,41,41,40,41,40,36,40,40,40,41,39,35,41,40,40,40,39,36,40,40,40,40,39,37,40,40,40,40,40,38,40,40,40,40,40,39,40,40,40,40,40,39,41,40,40,40,40,40,41,40,40,40,41,40,40,40,40,40,41,40,41,40,40,40,41,40,41,right
40,40,40,39,40,41,40,40,40,40,40,40,40,40,40,40,41,40,40,40,40,40,41,40,40,40,40,40,40,40,40,40,40,41,41,40,40,40,40,39,36,40,40,40,40,41,38,40,40,40,40,41,40,40,40,40,40,40,42,40,40,40,40,40,43,41,40,40,41,41,48,40,41,40,41,41,48,40,41,40,41,41,46,41,41,40,41,42,44,40,41,40,41,41,42,41,41,40,41,41,41,40,41,40,41,41,38,41,41,40,41,40,37,40,40,40,41,40,37,42,40,40,40,40,37,40,40,40,40,40,37,40,40,40,40,39,37,41,40,40,40,40,38,40,40,40,40,40,39,40,40,40,40,40,39,40,40,40,40,40,40,40,40,40,40,41,40,40,40,40,40,40,40,41,40,40,40,40,40,41,right
40,40,40,41,41,40,40,40,40,40,41,40,40,40,40,41,41,40,40,40,40,41,41,40,40,40,40,40,40,40,40,40,40,40,40,40,40,40,40,40,38,41,40,40,40,40,39,40,40,40,40,41,41,40,40,40,40,40,42,41,40,40,40,40,43,40,41,40,41,41,47,40,41,40,41,42,47,40,41,40,41,41,46,40,41,40,41,42,44,40,41,40,41,41,42,41,41,40,41,41,40,41,41,40,41,41,38,41,41,40,41,40,36,41,40,40,41,40,36,41,40,40,40,40,36,40,40,40,40,39,37,40,40,40,40,40,38,40,40,40,40,40,39,40,40,40,40,40,40,40,40,40,40,40,40,40,40,40,40,40,40,40,40,40,40,40,40,41,40,40,40,41,40,40,40,40,40,40,40,41,right
40,40,40,40,40,41,40,40,40,41,40,41,40,40,40,40,40,41,40,40,40,40,40,40,40,40,40,40,40,41,40,40,40,40,40,40,40,40,40,41,38,39,40,40,40,40,40,40,40,40,40,40,41,40,40,41,40,40,42,42,40,41,40,41,44,40,40,40,41,41,48,42,41,40,41,42,47,42,41,40,41,42,45,41,41,40,41,42,43,41,41,40,41,40,40,41,41,40,41,40,39,40,41,40,41,40,37,40,40,40,41,39,37,40,40,40,40,40,37,40,40,40,40,40,38,40,40,40,40,40,38,40,40,40,40,40,39,40,40,40,40,40,39,40,40,40,40,40,39,41,40,40,40,40,40,41,40,40,40,41,40,40,40,40,40,40,40,40,40,40,40,40,40,41,40,40,40,40,40,40,right
40,40,40,40,40,40,40,40,40,40,40,40,40,40,40,40,40,40,40,40,40,40,40,41,40,40,40,40,40,40,40,40,40,40,41,40,40,40,40,40,37,40,40,40,40,40,39,40,40,40,40,41,41,40,40,40,40,40,42,41,40,40,40,40,44,40,40,40,41,41,50,41,41,40,41,41,48,41,41,40,41,41,46,41,41,40,41,41,44,41,41,40,41,41,41,40,41,40,41,41,39,40,41,40,41,41,37,40,41,40,41,40,36,41,40,40,41,40,36,40,40,40,40,40,37,40,40,40,40,40,37,41,40,40,40,40,38,40,40,40,40,40,39,40,40,40,40,40,39,40,40,40,40,40,40,40,40,40,40,40,40,40,40,40,40,40,40,40,40,40,40,40,40,40,40,40,40,40,40,40,right
40,40,40,40,41,40,40,40,40,40,41,40,40,40,40,40,41,40,40,40,40,40,40,40,40,40,40,40,40,40,40,40,40,41,40,40,40,40,40,41,37,39,40,40,40,40,38,40,40,40,40,40,40,40,40,40,40,40,42,42,40,41,40,40,44,39,40,40,41,39,49,42,41,40,41,41,49,41,41,40,41,42,48,41,41,40,41,42,46,41,41,40,41,41,42,41,41,40,41,41,39,41,41,40,41,41,36,40,40,40,41,40,35,40,40,40,41,39,35,41,40,40,40,40,37,40,40,40,40,40,37,39,40,40,40,39,38,41,40,40,40,40,39,40,40,40,40,40,40,40,40,40,40,40,40,41,40,40,40,40,40,41,40,40,40,41,40,40,40,40,40,41,40,40,40,40,40,40,40,41,right
40,40,40,40,40,41,40,40,40,40,40,40,40,40,40,40,40,40,40,40,40,41,40,40,40,40,40,40,40,41,40,40,40,41,41,40,40,40,40,41,35,40,40,40,40,41,38,40,40,40,40,40,40,40,40,40,40,40,42,41,40,40,40,40,44,40,40,40,41,39,52,40,41,41,41,40,50,41,41,40,41,41,47,40,41,40,41,42,45,41,41,40,41,42,42,40,41,40,41,42,39,41,41,40,41,41,37,41,41,40,41,40,36,40,40,40,41,40,36,41,40,40,41,40,36,41,40,40,40,40,36,40,40,40,40,40,37,40,40,40,40,40,38,40,40,40,40,40,39,40,40,40,40,40,40,40,40,40,40,40,40,40,40,40,40,40,41,40,40,40,40,40,40,40,40,40,40,40,40,41,right
40,40,40,40,41,40,40,40,40,41,41,40,40,40,40,40,41,40,40,40,40,40,41,40,40,40,40,40,41,40,40,40,40,40,40,40,40,40,40,40,36,40,40,40,40,41,38,40,40,40,40,40,39,41,40,40,40,40,41,40,40,40,40,40,43,40,40,40,40,40,48,40,41,40,41,40,48,40,41,40,41,41,47,40,41,40,41,41,46,40,41,40,41,42,44,40,41,40,41,41,42,41,41,40,41,41,39,41,41,40,41,41,38,41,40,40,41,40,36,41,40,40,41,40,36,41,40,40,40,40,36,41,40,40,40,40,37,40,40,40,40,40,37,40,40,40,40,40,38,40,40,40,40,40,39,40,40,40,40,40,40,40,40,40,40,40,40,41,40,40,40,40,40,40,40,40,40,40,40,40,right
40,40,40,41,41,41,40,40,40,40,41,41,40,40,40,40,41,40,40,40,40,40,41,40,40,40,40,40,41,40,40,40,40,40,40,41,40,40,40,40,32,40,40,40,40,42,35,40,40,40,40,42,38,39,40,40,40,40,40,41,40,40,40,40,42,41,40,40,40,40,52,41,40,40,41,39,51,40,41,40,41,39,50,42,41,40,41,41,48,40,41,40,41,42,46,40,41,40,41,42,43,40,41,40,41,42,40,40,41,40,41,41,37,41,40,40,41,41,36,40,40,40,41,40,35,41,40,40,40,40,36,40,40,40,40,40,36,40,40,40,40,40,38,40,40,40,40,40,38,40,40,40,40,40,39,40,40,40,40,40,40,40,40,40,40,40,40,40,40,40,40,40,40,40,40,40,40,40,40,40,right
40,40,40,41,40,41,40,40,40,41,40,40,40,40,40,41,40,40,40,40,40,41,40,40,40,40,40,41,40,41,40,40,40,40,40,40,40,40,40,41,37,40,40,40,40,41,38,41,40,40,40,40,40,41,40,40,40,40,42,41,40,40,40,40,43,40,40,40,41,39,49,41,41,40,41,40,49,40,41,40,41,41,48,40,41,40,41,41,46,40,41,40,41,42,43,41,41,40,41,42,40,40,41,40,41,41,38,41,41,40,41,41,37,41,40,40,41,40,36,41,40,40,41,40,36,41,40,40,40,40,38,40,40,40,41,40,38,40,40,40,40,40,38,40,40,40,40,40,38,40,40,40,40,40,39,40,40,40,40,40,39,40,40,40,40,40,40,40,40,40,40,40,40,41,40,40,40,40,40,40,right
40,40,40,41,41,41,40,40,40,40,40,41,40,40,40,40,40,41,40,40,40,40,40,40,40,40,40,40,40,40,40,40,40,40,40,40,40,40,40,41,35,40,40,40,40,41,37,40,40,40,40,41,38,40,40,40,40,40,40,41,40,40,40,40,42,40,40,40,40,39,49,41,40,40,41,39,49,40,41,40,41,39,49,41,41,40,41,41,48,40,41,40,41,42,47,40,41,40,41,42,44,40,41,40,41,42,40,40,41,40,41,41,37,41,41,40,41,41,36,40,40,40,41,40,35,41,40,40,41,39,35,41,40,40,40,39,36,40,40,40,40,40,37,40,40,40,40,40,38,41,40,40,40,40,39,40,40,40,40,40,39,41,40,40,40,40,40,40,40,40,40,41,40,41,40,40,40,40,41,40,right
40,40,40,41,41,40,40,40,40,41,41,40,40,40,40,40,40,40,40,40,40,40,40,40,40,40,40,40,41,40,40,40,40,40,40,40,40,40,40,41,36,40,40,40,40,41,39,40,40,40,40,40,41,40,40,40,40,40,43,41,40,40,40,40,45,40,40,40,40,40,50,41,41,40,41,40,49,41,41,40,41,41,47,42,41,40,41,41,44,40,41,40,41,42,41,41,41,40,41,42,38,41,41,40,41,40,36,40,41,40,41,40,36,41,40,40,40,40,36,40,40,40,40,40,37,40,40,40,40,40,37,40,40,40,40,41,38,40,40,40,40,40,39,40,40,40,40,40,39,40,40,40,40,40,40,40,40,40,40,40,40,41,40,40,40,40,40,40,40,40,40,40,40,40,40,40,40,41,40,40,right
40,41,40,41,40,41,40,40,40,40,40,41,40,40,40,41,41,40,40,40,40,40,40,40,40,40,40,40,40,41,40,40,40,40,40,41,40,40,40,40,36,40,40,40,40,40,37,40,40,40,40,40,40,41,40,40,40,40,42,41,40,40,40,40,44,40,41,40,40,41,51,41,41,40,41,41,51,41,41,40,41,42,49,40,41,40,41,42,46,41,41,40,41,42,43,40,41,40,41,41,39,40,41,40,41,41,37,40,41,40,41,40,35,41,40,40,41,39,35,40,40,40,40,39,35,40,40,40,40,40,37,40,40,40,40,39,37,40,40,40,40,40,38,41,40,40,40,40,39,40,40,40,40,40,40,40,40,40,40,40,40,41,40,40,40,41,40,40,40,40,40,41,40,41,40,40,40,41,40,40,right
40,40,40,40,40,40,40,40,40,40,40,40,40,40,40,40,40,41,40,40,40,40,40,41,40,40,40,40,40,40,40,40,40,41,40,40,40,40,40,41,34,41,40,40,40,41,37,40,40,40,40,40,39,40,40,40,40,40,41,40,40,40,40,40,43,41,40,40,40,40,51,40,40,40,41,40,50,40,41,40,41,41,49,40,41,40,41,41,47,40,41,40,41,42,44,41,41,40,41,42,42,41,41,40,41,41,39,41,41,40,41,41,37,41,41,40,41,40,36,41,40,40,41,39,36,41,40,40,41,40,36,40,40,40,40,40,36,40,40,40,40,40,37,40,40,40,40,40,37,40,40,40,40,40,39,40,40,40,40,40,39,40,40,40,40,40,40,40,40,40,40,40,40,41,40,40,40,40,40,40,right
40,40,40,40,41,40,40,40,40,40,41,40,40,40,40,41,41,40,40,40,40,40,40,40,40,40,40,40,40,40,40,40,40,41,40,41,40,40,40,40,33,40,40,40,40,40,35,40,40,40,40,40,38,40,40,40,40,41,41,40,40,40,40,40,43,40,40,40,40,40,52,40,40,41,41,41,51,41,41,40,41,43,50,40,41,40,41,42,48,41,41,40,41,41,45,41,41,40,41,42,43,41,41,40,41,42,39,40,41,40,41,41,37,41,41,40,41,40,35,40,41,40,41,40,35,41,40,40,41,39,34,40,40,40,40,39,35,41,40,40,40,39,37,40,40,41,40,39,38,41,40,40,40,40,39,41,40,40,40,41,40,40,40,40,40,40,40,40,40,40,40,40,40,40,40,40,40,40,40,41,right
40,40,40,41,40,41,40,40,40,40,40,41,40,40,40,41,40,41,40,40,40,41,41,40,40,40,40,41,40,40,40,40,40,41,40,40,40,40,40,42,37,40,40,40,40,41,38,40,40,40,40,40,40,40,40,40,40,40,43,41,40,40,40,40,45,40,40,41,41,38,51,41,41,40,41,40,50,41,41,40,41,41,48,41,41,40,41,41,45,41,41,40,41,42,40,41,41,40,41,42,37,40,41,40,41,40,35,40,40,40,41,40,35,40,40,40,40,40,35,40,40,40,40,40,36,40,40,40,40,40,37,40,40,40,40,40,38,40,40,40,40,40,39,41,40,40,40,40,40,40,40,40,40,40,40,41,40,40,40,40,40,40,40,40,40,40,40,40,40,40,40,40,40,40,40,40,40,40,40,40,right
40,40,40,41,41,41,40,40,40,41,40,41,40,40,40,41,41,41,40,40,40,40,41,41,40,40,40,40,41,40,40,40,40,40,40,41,40,40,40,40,33,41,40,40,40,40,35,41,40,40,40,40,38,40,40,40,40,40,40,40,40,40,40,40,42,41,40,40,40,40,52,40,40,40,41,40,51,40,41,40,41,40,50,39,41,41,41,41,48,40,41,41,41,43,46,40,41,40,41,43,43,41,41,40,41,42,40,41,41,40,41,42,37,42,41,40,41,41,35,40,40,40,41,39,34,42,40,40,41,39,35,41,40,40,40,39,35,41,40,40,40,40,37,40,40,40,40,40,38,41,40,40,40,41,39,41,40,40,40,40,40,40,40,40,40,40,40,40,40,40,40,40,41,41,40,40,40,40,41,40,right
40,40,40,41,41,40,40,40,40,40,40,40,40,40,40,40,40,40,40,40,40,40,40,41,40,40,40,40,40,40,40,40,40,40,40,40,40,40,40,41,33,41,40,40,40,42,35,40,40,40,40,41,38,40,40,40,40,40,41,40,40,40,40,40,43,40,40,40,40,39,52,40,41,41,41,39,52,40,41,41,41,40,51,41,41,41,41,42,48,41,41,41,41,42,46,41,41,40,41,43,42,42,41,40,41,42,38,41,41,40,41,40,35,42,41,40,41,39,33,41,40,40,41,38,33,40,40,40,40,39,34,40,40,40,40,39,36,40,40,40,40,39,38,40,40,41,40,41,39,40,40,40,40,41,40,40,40,40,40,41,41,41,40,40,40,41,40,41,40,40,40,41,40,40,40,40,40,41,40,41,right
40,40,40,40,40,41,40,40,40,40,40,40,40,40,40,40,41,40,40,40,40,40,41,40,40,40,40,40,41,40,40,40,40,40,41,40,40,40,40,41,33,41,40,40,40,42,36,40,40,40,40,41,38,40,40,40,40,40,41,40,40,40,40,40,42,41,40,40,40,39,52,39,40,40,41,39,50,40,41,41,41,40,49,40,41,41,41,40,47,40,41,41,41,41,46,40,41,40,41,42,43,41,41,40,41,42,41,40,41,40,41,41,37,42,41,40,41,41,36,41,40,40,41,40,35,42,40,40,41,40,35,40,40,40,40,40,35,41,40,40,40,40,37,41,40,40,40,40,38,40,40,40,40,40,39,40,40,40,40,40,40,40,40,40,40,40,40,40,40,40,40,40,40,40,40,40,40,40,40,40,right
40,40,40,41,41,40,40,40,40,41,41,40,40,40,40,40,41,40,40,40,40,41,41,40,40,40,40,40,41,40,40,40,40,40,40,40,40,40,40,40,34,41,40,40,40,42,36,40,40,40,40,41,38,40,40,40,40,40,41,40,40,40,40,40,43,42,40,40,40,40,51,39,41,40,41,39,51,40,41,40,41,40,49,40,41,40,41,41,48,40,41,41,41,42,45,40,41,40,41,42,43,40,41,40,41,42,40,41,41,40,41,41,38,41,41,40,41,40,35,42,40,40,41,40,34,41,40,40,41,40,34,41,40,40,40,40,35,40,40,40,40,40,36,41,40,40,40,40,38,40,40,40,40,40,39,40,40,40,40,40,40,40,40,40,40,40,40,40,40,40,40,40,40,40,40,40,40,40,40,41,right
40,40,40,41,40,40,40,40,40,41,40,41,40,40,40,40,40,40,40,40,40,40,40,40,40,40,40,41,40,40,40,40,40,41,40,40,40,40,40,42,35,40,40,40,40,41,38,40,40,40,40,41,41,40,40,40,40,40,42,41,40,40,40,40,43,40,40,40,41,39,50,41,41,40,41,40,49,40,41,40,41,40,46,41,41,41,41,42,45,40,41,40,41,41,42,41,41,40,41,41,40,40,41,40,41,40,37,41,41,40,41,40,36,40,40,40,41,40,35,41,40,40,41,41,36,41,40,40,40,40,37,40,40,40,40,40,38,41,40,40,40,40,39,40,40,40,40,40,40,41,40,40,40,40,40,40,40,40,40,40,40,40,40,40,40,40,40,40,40,40,40,40,40,41,40,40,40,41,40,40,right
40,40,40,40,41,41,40,40,40,40,40,40,40,40,40,40,40,40,40,40,40,40,40,40,40,40,40,40,40,40,40,40,40,40,40,40,40,40,40,41,36,40,40,40,40,41,39,40,40,40,40,40,41,40,40,40,40,40,42,41,40,40,40,40,43,40,40,40,41,39,49,40,41,40,41,40,48,41,41,41,41,41,46,40,41,40,41,41,44,40,41,40,41,41,43,40,41,40,41,42,41,41,41,40,41,41,39,40,41,40,41,40,37,42,40,40,41,40,37,41,40,40,41,40,36,41,40,40,40,39,36,42,40,40,40,40,37,41,40,40,40,40,38,40,40,40,40,41,39,40,40,40,40,40,39,40,40,40,40,41,40,40,40,40,40,41,40,40,40,40,40,40,40,40,40,40,40,40,40,40,right
40,40,40,41,40,41,40,40,40,40,40,40,40,40,40,40,40,40,40,40,40,40,41,40,40,40,40,40,41,41,40,40,40,40,40,40,40,40,40,42,38,40,40,40,40,40,40,41,40,40,40,40,42,41,40,40,40,40,43,41,40,40,40,40,44,39,41,41,41,38,48,41,41,40,41,41,46,40,41,40,41,42,45,40,41,40,41,42,44,40,41,40,41,42,41,41,41,40,41,41,38,41,41,40,41,40,37,40,40,40,41,39,35,41,40,40,41,40,35,40,40,40,40,40,36,41,40,40,40,40,37,40,40,40,40,40,38,40,40,40,40,40,39,40,40,40,40,40,40,41,40,40,40,40,41,40,40,40,40,40,41,40,40,40,40,41,41,40,40,40,40,40,41,41,40,40,40,41,40,41,right
40,40,40,40,41,40,40,40,40,40,41,40,40,40,40,40,40,40,40,40,40,40,40,40,40,40,40,40,40,40,40,40,40,40,40,40,40,40,40,40,35,41,40,40,40,41,37,41,40,40,40,41,39,40,40,40,40,40,41,40,40,40,40,40,42,41,40,40,40,40,49,39,40,40,40,39,49,39,41,41,41,40,49,40,41,41,41,42,47,40,41,41,41,42,44,40,41,40,41,42,42,40,41,40,41,42,39,41,41,40,41,41,37,41,41,40,41,40,36,41,40,40,41,39,35,41,40,40,40,40,36,41,40,40,40,39,37,41,40,40,40,40,38,40,40,40,40,40,39,40,40,40,40,40,39,40,40,40,40,40,40,41,40,40,40,40,40,41,40,40,40,41,41,41,40,40,40,41,41,40,right
40,40,40,40,41,40,40,40,40,40,40,40,40,40,40,40,40,40,40,40,40,40,40,40,40,40,40,40,40,40,40,40,40,40,40,40,40,40,40,41,38,40,40,40,40,40,40,40,40,40,40,40,42,41,40,40,40,40,44,41,40,40,40,40,45,40,41,40,41,40,49,41,41,40,41,41,48,41,41,40,41,42,46,40,41,40,41,42,43,41,41,40,41,41,40,41,41,40,41,41,37,41,41,40,41,40,35,40,41,40,41,39,35,41,40,40,40,39,35,40,40,40,40,40,36,40,40,40,40,40,37,40,40,40,40,40,38,40,40,40,40,40,39,40,40,40,40,40,40,40,40,40,40,40,40,40,40,40,40,41,41,40,40,40,40,40,41,40,40,40,40,41,41,41,40,40,40,41,41,40,right
40,40,40,40,40,40,40,40,40,40,40,41,40,40,40,40,40,41,40,40,40,40,41,40,40,40,40,40,40,40,40,40,40,40,40,40,40,40,40,41,36,40,40,40,40,41,38,40,40,40,40,40,39,40,40,40,40,40,41,40,40,40,40,40,43,40,40,40,41,39,49,40,41,40,41,40,49,40,41,40,41,40,47,40,41,40,41,41,45,41,41,40,41,41,43,41,41,40,41,41,41,41,41,40,41,41,39,41,41,40,41,41,37,40,40,40,41,40,36,41,40,40,41,40,36,40,40,40,40,40,36,41,40,40,40,40,37,41,40,40,40,40,38,40,40,40,40,40,39,41,40,40,40,40,39,41,40,40,40,40,40,40,40,40,40,41,40,41,40,40,40,40,40,40,40,40,40,40,40,40,right
40,40,40,41,40,40,40,40,40,40,40,40,40,40,40,40,40,40,40,40,40,41,40,40,40,40,40,40,40,40,40,40,40,40,40,40,40,40,40,41,36,40,40,40,40,41,37,40,40,40,40,40,40,40,40,40,40,40,42,40,40,40,40,40,44,41,40,40,40,40,50,40,41,40,41,40,50,40,41,40,41,41,47,40,41,41,41,42,45,41,41,40,41,42,43,41,41,40,41,42,40,41,41,40,41,41,37,41,41,40,41,40,36,41,40,40,41,39,35,41,40,40,41,40,35,40,40,40,40,39,35,40,40,40,40,40,37,41,40,40,40,40,38,40,40,40,40,41,39,40,40,40,40,40,40,40,40,40,40,40,40,40,40,40,40,40,41,40,40,40,40,40,41,40,40,40,40,40,41,40,right
40,40,40,41,41,41,40,40,40,41,40,41,40,40,40,41,40,41,40,40,40,40,40,40,40,40,40,40,40,41,40,40,41,40,40,40,40,40,40,41,34,41,40,40,40,41,36,40,40,40,40,41,39,41,40,40,40,41,40,41,40,40,40,40,43,41,40,40,40,39,50,40,40,40,40,39,50,41,41,40,41,39,49,40,41,40,41,40,48,40,41,41,41,41,46,39,41,41,41,43,44,40,41,40,41,42,40,41,41,40,41,41,38,41,41,40,41,41,36,41,40,40,41,41,35,40,40,40,41,39,34,41,40,40,40,39,35,41,40,40,40,40,37,40,40,40,40,40,38,40,40,40,40,40,39,41,40,40,40,41,40,41,40,40,40,41,40,40,40,40,40,40,41,41,40,40,40,41,41,41,right
40,40,40,40,40,40,40,40,40,40,41,40,40,40,40,40,41,40,40,40,40,40,40,40,40,40,40,40,40,40,40,40,40,40,40,40,40,40,40,41,35,41,40,40,40,41,37,40,40,40,40,41,39,40,40,40,40,41,42,40,40,40,40,40,44,40,40,40,41,39,51,39,41,41,41,40,50,40,41,41,41,41,48,40,41,41,41,41,45,41,41,41,41,42,43,41,41,40,41,42,40,42,41,40,41,41,38,41,41,40,41,40,36,41,40,40,41,40,35,41,40,40,41,39,35,41,40,40,40,40,35,40,40,40,40,40,37,40,40,40,40,40,38,40,40,40,40,40,39,40,40,40,40,40,40,40,40,40,40,40,41,41,40,40,40,41,41,40,40,40,40,40,41,40,40,40,40,40,41,40,right
40,40,40,41,40,40,40,40,40,40,40,41,40,40,40,41,40,41,40,40,40,41,41,40,40,40,40,40,40,41,40,40,40,40,40,41,40,40,40,41,36,40,40,40,40,41,38,39,40,40,40,41,40,40,40,40,40,40,42,41,40,40,40,40,44,40,40,40,41,39,49,41,41,40,41,40,49,41,41,40,41,41,47,41,41,40,41,42,46,41,41,40,41,42,43,41,41,40,41,42,41,40,41,40,41,41,38,41,41,40,41,40,36,41,40,40,41,40,35,41,40,40,41,39,35,40,40,40,41,39,35,40,40,40,40,40,37,40,40,40,40,40,38,40,40,40,40,40,39,40,40,40,40,40,40,41,40,40,40,40,40,40,40,40,40,40,40,41,40,40,40,40,40,40,40,40,40,40,40,41,right
40,40,40,40,41,40,40,40,40,40,40,40,40,40,40,40,40,40,40,40,40,40,40,40,40,40,40,40,40,40,40,40,40,40,40,40,40,40,40,40,35,40,40,40,40,40,37,40,40,40,40,41,39,40,40,40,40,40,41,41,40,40,40,40,43,40,40,41,40,40,50,40,41,40,41,41,50,40,41,40,41,41,49,41,41,40,41,42,47,41,41,40,41,43,46,40,41,40,41,43,42,41,41,40,41,41,40,41,41,40,41,40,37,42,41,40,41,39,35,40,40,40,41,38,33,42,40,40,40,38,35,40,40,40,41,40,35,40,40,40,40,40,37,40,40,40,40,40,38,40,40,40,40,40,40,40,40,40,40,41,40,40,40,40,40,40,41,41,40,40,40,40,41,41,40,40,40,40,41,41,right
27,28,30,55,0,100,29,28,30,39,13,59,29,28,30,31,18,41,29,28,30,26,21,28,29,28,30,22,23,37,30,29,30,15,29,3,30,30,30,13,28,4,30,31,30,14,27,2,30,31,30,16,26,5,30,31,30,16,25,12,30,31,30,17,24,18,30,31,30,19,23,21,30,31,30,21,22,23,30,31,30,24,22,26,30,31,30,28,21,25,30,31,30,27,21,31,30,30,30,28,21,29,30,30,30,28,22,29,30,30,30,26,22,27,30,30,30,25,22,31,30,30,30,26,22,27,30,30,30,25,23,24,30,30,30,23,23,25,30,30,30,24,23,24,30,30,30,23,23,24,30,30,30,23,23,22,30,30,30,23,23,22,30,30,30,23,23,23,30,30,30,22,23,22,30,30,30,23,23,23,up
28,28,31,60,11,100,29,28,31,38,17,57,30,28,31,31,19,39,30,28,31,25,21,26,30,29,31,21,23,36,30,30,31,13,26,2,30,30,31,12,26,1,30,31,31,13,26,2,31,32,31,14,27,5,31,32,31,17,25,14,31,32,31,19,23,20,31,32,30,22,22,24,31,31,30,24,21,26,31,31,30,27,21,29,31,31,30,27,21,28,31,31,30,27,21,28,31,31,31,25,22,29,31,31,30,25,22,27,31,31,30,25,22,27,31,31,30,25,22,26,31,30,30,24,22,28,31,30,31,25,23,25,31,30,31,24,23,26,31,30,31,23,23,25,31,30,31,23,23,23,31,30,31,22,23,23,31,31,31,23,23,22,31,31,31,22,23,22,31,31,31,23,23,22,31,31,31,23,23,22,up
31,31,34,56,12,94,32,32,33,37,18,58,32,31,33,30,19,42,32,31,33,25,20,30,32,32,33,23,22,35,33,32,33,14,25,4,33,33,33,13,25,3,33,34,33,13,26,2,33,34,33,14,26,2,33,34,33,15,25,11,33,34,33,18,24,17,34,34,33,22,23,21,34,34,33,24,23,22,34,34,33,26,21,29,34,34,33,28,21,29,34,34,33,29,20,31,33,33,33,26,21,33,33,33,33,27,21,32,33,33,33,26,22,31,33,33,33,25,23,27,33,33,33,23,23,26,33,33,33,23,23,23,33,33,33,22,23,23,33,33,33,22,23,22,33,33,33,23,23,22,33,33,33,23,23,22,33,33,33,23,23,22,33,33,33,23,23,23,33,33,33,23,23,22,33,33,33,23,23,23,up
31,30,33,68,28,98,32,31,33,47,30,63,32,30,33,43,31,43,32,31,33,32,32,33,33,32,33,30,33,43,33,33,33,23,35,17,33,33,33,23,35,12,33,34,33,21,36,14,33,35,33,28,35,21,33,34,33,31,34,26,33,34,33,33,33,31,34,34,33,34,33,34,34,34,33,38,32,38,34,34,33,36,32,40,34,34,33,38,32,40,33,33,33,36,33,43,33,33,33,37,33,39,33,33,33,35,32,39,33,33,33,35,33,37,33,33,33,34,33,37,33,33,33,34,33,35,33,33,33,33,33,34,33,33,33,33,33,33,33,33,33,33,33,33,33,33,33,33,33,33,33,33,33,33,33,33,33,33,33,33,33,32,33,33,33,33,33,33,33,33,33,33,33,33,33,33,33,33,33,33,up
31,31,34,66,25,91,32,31,33,47,30,60,32,32,33,41,31,48,32,31,33,39,32,39,32,32,33,34,33,46,33,32,33,23,35,18,33,33,33,24,35,17,33,33,33,23,35,15,33,34,33,23,35,19,33,34,33,27,34,22,33,34,33,31,34,26,33,34,33,33,33,30,34,34,33,34,33,35,34,34,33,37,33,36,34,34,33,37,33,39,34,34,33,37,32,39,33,33,33,36,33,41,33,33,33,37,33,40,33,33,33,35,33,39,33,33,33,35,33,37,33,33,33,34,33,37,33,33,33,34,33,35,33,33,33,34,33,34,33,33,33,33,33,34,33,33,33,33,33,33,33,33,33,33,33,33,33,33,33,33,33,33,33,33,33,33,33,33,33,33,33,33,33,33,33,33,33,33,33,33,up
31,31,34,64,26,88,32,31,34,49,27,57,32,31,33,41,29,45,32,31,33,35,31,36,32,32,33,32,33,42,33,32,33,24,36,17,33,33,33,21,37,17,33,34,33,22,37,18,33,34,33,26,36,19,33,35,33,31,34,24,34,35,33,32,33,30,33,34,33,35,33,35,34,34,33,39,32,36,33,34,33,36,33,37,33,33,33,36,33,39,33,33,33,36,33,40,34,33,33,36,32,37,33,33,33,35,33,39,33,33,33,36,32,37,33,33,33,34,33,37,33,33,33,34,33,36,33,33,33,33,33,34,33,33,33,33,33,35,33,33,33,33,33,32,33,33,33,33,33,33,33,33,33,33,33,33,33,33,33,33,33,34,33,33,33,34,33,33,33,33,33,33,33,33,33,33,33,33,33,33,up
31,31,34,67,26,82,32,32,33,48,29,58,32,32,33,41,30,49,32,32,33,39,31,43,32,32,33,36,32,46,33,32,33,25,35,21,33,32,33,24,36,19,33,33,33,25,36,18,33,33,33,24,36,17,33,34,33,23,36,19,33,34,33,28,35,24,33,34,33,32,34,29,34,34,33,32,33,32,34,34,33,35,33,35,34,34,33,37,32,37,33,34,33,38,32,38,33,33,33,36,32,39,33,33,33,37,32,39,33,33,33,36,32,42,33,33,33,37,32,38,33,33,33,35,32,37,33,33,33,35,33,37,33,33,33,34,33,35,33,33,33,33,33,33,33,33,33,33,33,33,33,33,33,33,33,33,33,33,33,33,33,33,33,33,33,33,33,33,33,33,33,33,33,33,33,33,33,33,33,33,up
31,31,34,70,28,92,32,31,33,49,30,62,32,31,33,39,31,49,32,31,33,35,32,38,33,32,33,32,33,43,33,33,33,23,35,18,33,33,33,24,34,17,33,33,33,26,35,16,33,34,33,27,35,17,33,34,33,28,35,24,33,34,33,31,34,28,34,34,33,32,34,32,34,34,33,34,33,35,34,34,33,35,33,37,33,34,33,37,32,38,33,33,33,37,32,40,33,33,33,37,32,39,33,33,33,36,33,40,33,33,33,36,32,38,33,33,33,35,33,38,33,33,33,35,33,36,33,33,33,34,33,36,33,33,33,34,33,34,33,33,33,33,33,33,33,33,33,33,33,33,33,33,33,33,33,33,33,33,33,33,33,33,33,33,33,33,33,33,33,33,33,33,33,33,33,33,33,33,33,33,up
31,31,34,70,25,89,32,31,34,47,28,58,32,31,33,41,30,43,32,31,33,36,32,35,32,32,33,31,34,43,33,33,33,22,36,20,33,33,33,24,36,17,33,34,33,24,36,18,33,34,33,25,35,21,33,34,33,31,33,27,33,34,33,33,33,28,34,34,33,33,33,33,34,34,33,35,33,36,34,34,33,36,33,37,33,33,33,37,33,37,33,33,33,36,33,38,33,33,33,36,32,38,33,33,33,35,32,39,33,33,33,36,32,36,33,33,33,35,32,36,33,33,33,34,33,38,33,33,33,35,33,36,33,33,33,33,33,35,33,33,33,33,33,33,33,33,33,32,33,33,33,33,33,33,33,32,33,33,33,33,33,33,33,33,33,33,33,33,33,33,33,33,33,33,33,33,33,33,33,33,up
32,32,35,77,25,94,33,32,34,53,28,61,33,32,34,42,31,47,33,32,34,39,32,36,33,32,34,31,34,45,34,33,34,21,37,18,34,34,34,22,37,19,34,34,34,22,37,15,34,35,34,23,36,22,34,35,34,29,35,27,34,35,34,34,33,28,34,35,34,35,33,35,34,35,34,39,33,34,34,35,34,39,33,39,34,35,34,40,34,36,34,34,34,36,34,41,34,34,34,37,34,40,34,34,34,36,34,41,34,34,34,37,34,39,34,34,34,36,33,40,34,34,34,36,34,38,34,34,34,34,34,36,34,34,34,34,34,34,34,34,34,33,34,34,34,34,34,34,34,33,34,34,34,33,34,34,34,34,34,34,34,33,34,34,34,34,34,34,34,34,34,34,34,34,34,34,34,34,34,34,up
33,32,35,76,25,96,34,32,35,52,29,61,34,32,35,45,32,42,34,33,35,34,35,33,34,34,35,30,36,45,35,35,35,23,38,20,35,35,35,24,38,17,35,36,35,23,38,19,35,36,35,31,36,28,35,36,35,34,35,29,35,36,35,35,35,33,35,36,35,36,35,35,35,36,35,40,35,35,35,36,35,38,35,40,35,36,35,40,34,37,35,35,35,37,34,42,35,35,35,38,34,40,35,35,35,37,35,41,35,35,35,38,34,40,35,35,35,36,35,39,35,35,35,36,35,37,35,35,35,36,35,36,35,35,35,35,35,36,35,35,35,35,35,35,35,35,35,35,35,35,35,35,35,35,35,35,35,35,35,35,35,35,35,35,35,35,35,35,35,35,35,35,35,35,35,35,35,35,35,35,up
33,33,35,81,26,98,34,33,35,52,29,63,34,33,35,44,31,46,34,33,35,38,34,35,34,34,35,31,36,46,35,34,35,22,38,20,35,35,35,24,38,18,35,36,35,23,38,17,35,36,35,29,36,26,35,36,35,34,35,28,35,36,35,35,35,32,35,36,35,37,35,37,35,36,35,39,35,36,35,35,35,37,35,41,35,35,35,38,35,40,35,35,35,38,34,42,35,35,35,37,34,42,35,35,35,37,34,40,35,35,35,37,34,40,35,35,35,37,35,38,35,35,35,35,35,37,35,35,35,36,35,36,35,35,35,35,35,36,35,35,35,35,35,35,35,35,35,35,35,35,35,35,35,35,35,35,35,35,35,35,35,35,35,35,35,35,35,35,35,35,35,35,35,35,35,35,35,35,35,35,up
33,33,36,79,27,94,34,33,35,54,29,62,34,33,35,43,32,49,34,33,35,40,34,38,34,33,35,33,35,45,35,34,35,22,38,20,35,35,35,22,38,21,35,36,35,25,38,18,35,36,35,28,37,21,35,36,35,32,36,29,35,36,35,32,35,32,35,36,35,37,35,36,35,36,35,40,35,34,35,36,35,37,35,37,35,35,35,38,34,40,35,35,35,42,34,39,35,35,35,37,34,40,35,35,35,36,35,41,35,35,35,37,35,41,35,35,35,37,35,40,35,35,35,36,35,39,35,35,35,36,35,38,35,35,35,35,35,35,35,35,35,35,35,35,35,35,35,35,35,35,35,35,35,35,35,35,35,35,35,35,35,35,35,35,35,35,35,35,35,35,35,35,35,35,35,35,35,35,35,35,up
34,32,35,86,22,89,34,33,35,53,27,58,34,32,35,41,31,44,34,33,35,37,34,34,34,34,35,32,37,44,35,35,35,21,39,20,35,35,35,23,40,19,35,36,35,24,40,19,35,36,35,29,37,26,35,36,35,35,35,29,35,36,35,36,34,32,36,36,35,39,34,38,35,36,35,40,34,37,35,36,35,39,34,41,35,35,35,37,34,41,35,35,35,37,34,41,35,35,35,35,34,42,35,35,35,37,34,38,35,35,35,36,34,39,35,35,35,37,34,36,35,35,35,35,35,37,35,35,35,36,35,35,35,35,35,35,35,36,35,35,35,35,35,35,35,35,35,35,35,35,35,35,35,35,35,35,35,35,35,35,35,35,35,35,35,35,35,35,35,35,35,35,35,35,35,35,35,35,35,35,up
33,33,35,75,23,93,34,33,35,53,28,60,34,33,35,42,31,47,34,33,35,38,34,36,34,34,35,33,36,45,35,34,35,23,39,20,35,35,35,23,39,21,35,36,35,24,39,19,35,36,35,29,37,24,35,36,35,34,35,29,35,36,35,37,34,32,35,36,35,36,35,37,35,36,35,41,34,35,35,35,35,36,35,39,35,35,35,38,35,39,35,35,35,36,35,42,35,35,35,39,34,37,35,35,35,36,35,42,35,35,35,38,34,38,35,35,35,36,34,40,35,35,35,37,35,37,35,35,35,35,35,38,35,35,35,36,35,36,35,35,35,35,35,36,35,35,35,35,35,34,35,35,35,35,35,35,35,35,35,35,35,34,35,35,35,35,35,35,35,35,35,35,35,35,35,35,35,35,35,35,up
33,33,35,76,24,96,34,33,35,48,29,65,34,33,35,42,32,51,34,33,35,40,33,41,34,33,35,36,35,47,35,34,35,24,38,20,35,35,35,27,38,20,35,35,35,28,38,17,35,36,35,27,38,19,35,36,35,29,37,25,35,36,35,34,36,29,35,36,35,34,35,33,36,36,35,35,35,36,36,36,35,38,34,38,35,36,35,38,34,38,35,36,35,39,34,41,35,35,35,37,35,42,35,35,35,38,35,38,35,35,35,35,35,43,35,35,35,38,34,38,35,35,35,35,34,40,35,35,35,37,34,37,35,35,35,35,34,38,35,35,35,36,35,36,35,35,35,35,35,36,35,35,35,35,35,34,35,35,35,35,35,35,35,35,35,35,35,35,35,35,35,35,35,35,35,35,35,35,35,34,up
33,32,35,68,28,100,34,33,35,47,32,65,34,33,35,38,34,52,34,33,35,40,33,39,34,33,35,35,34,47,34,34,35,26,36,18,34,34,35,28,36,20,34,35,35,28,36,16,35,35,35,24,37,22,35,36,35,29,36,26,35,36,35,30,36,31,35,36,35,35,36,33,35,36,35,36,36,35,35,36,35,40,35,35,35,35,35,38,34,40,35,35,35,41,34,36,35,35,35,35,35,42,35,35,35,38,34,39,35,35,35,34,34,41,35,35,35,37,34,38,35,35,35,35,34,39,35,34,35,37,33,37,35,35,35,35,34,37,35,35,35,36,34,35,35,35,35,35,35,36,35,35,35,35,35,35,35,35,35,34,35,34,35,35,35,35,35,34,35,35,35,34,35,35,35,35,35,35,35,35,up
33,32,35,74,23,94,34,33,35,49,28,63,34,32,35,41,31,47,34,33,35,39,33,36,34,33,35,32,35,44,34,34,35,23,38,20,34,35,35,26,38,19,35,35,35,25,38,17,35,36,35,27,37,24,35,36,35,35,35,28,35,36,35,34,35,31,35,36,35,35,35,37,35,35,35,38,35,35,35,35,35,37,35,38,35,35,35,36,34,40,35,35,35,37,34,41,35,35,35,38,33,39,35,35,35,37,34,40,35,35,35,37,34,38,35,34,35,36,34,39,35,35,35,36,34,37,35,35,35,35,35,36,35,35,35,35,35,35,35,35,35,35,35,35,35,35,35,35,35,34,35,35,35,35,35,35,35,35,35,35,34,35,35,35,35,35,35,35,35,35,35,35,35,34,35,35,35,35,35,35,up
33,32,35,76,25,98,34,33,35,52,29,64,34,32,35,44,31,48,34,33,35,38,33,37,34,33,35,31,35,45,34,34,35,23,37,19,34,34,35,24,37,18,34,35,35,23,37,17,35,36,35,26,36,22,35,36,35,34,34,27,35,36,35,33,34,30,35,36,35,35,35,35,35,36,34,37,35,37,35,35,35,41,36,36,35,35,35,36,36,40,35,35,35,39,35,38,35,35,35,36,34,44,35,35,35,39,34,37,35,35,35,35,33,42,35,35,35,38,33,38,35,34,35,35,34,39,35,34,35,36,34,37,35,35,35,35,35,35,35,35,35,35,35,35,35,35,35,35,35,35,35,35,35,35,35,35,35,35,35,35,35,34,35,35,35,35,35,35,35,35,35,35,35,35,35,35,35,35,35,35,up
33,32,35,72,24,91,34,33,35,49,28,62,34,33,35,43,31,48,34,33,35,39,32,38,34,33,35,34,35,44,34,34,35,24,38,21,34,34,35,25,38,19,34,35,35,25,39,18,35,36,35,26,38,20,35,36,35,32,37,26,35,36,35,34,36,30,35,36,35,35,35,34,35,36,35,35,35,36,35,36,35,38,34,37,35,35,35,35,34,40,35,35,35,38,33,39,35,35,35,37,33,43,35,35,35,39,33,40,35,34,35,36,33,41,35,35,35,37,33,36,35,34,35,35,34,39,35,34,35,36,35,38,35,35,35,34,35,34,35,35,35,35,35,35,35,35,35,35,35,34,35,35,35,35,35,35,35,35,35,35,35,35,35,35,35,35,35,35,35,35,35,35,35,34,35,35,35,35,35,35,up
31,30,33,73,20,100,32,30,32,49,26,61,32,30,32,41,29,42,32,30,32,32,32,32,32,31,32,30,34,45,32,32,33,22,36,18,32,33,33,22,36,16,32,33,33,23,35,18,32,34,33,29,34,26,32,33,33,32,32,28,33,33,33,32,32,32,33,33,33,34,32,32,33,33,32,34,32,34,33,33,32,36,32,33,33,33,32,33,32,37,33,33,32,36,32,34,33,33,32,33,32,37,33,33,32,36,32,34,33,33,32,32,32,39,33,32,32,36,32,33,33,32,32,33,32,37,33,32,32,35,32,34,33,32,32,33,32,34,33,32,32,33,33,32,33,32,32,32,33,32,32,32,32,32,33,32,32,33,33,32,33,32,32,33,32,32,33,32,32,33,32,32,33,32,33,32,32,33,32,32,up
31,30,33,70,22,99,32,30,33,49,27,62,32,30,33,42,29,45,32,30,32,35,31,34,32,31,33,30,32,44,32,32,32,22,35,17,32,32,33,23,35,15,32,33,33,23,35,16,32,33,33,25,35,21,33,34,33,29,33,27,33,33,32,32,33,28,33,33,32,33,33,32,33,34,32,34,32,32,33,33,32,35,32,38,33,33,32,36,32,35,33,33,32,35,32,38,33,33,32,35,32,38,33,32,32,35,32,41,33,32,32,35,32,36,33,32,32,35,32,37,33,32,32,33,32,37,33,32,32,33,32,34,33,32,32,32,32,34,33,32,32,33,32,33,32,32,32,32,33,32,32,32,32,32,32,32,32,32,32,32,33,33,32,32,32,32,33,32,32,32,32,32,33,33,32,32,32,33,32,33,up
31,30,33,63,27,89,31,31,33,45,29,60,32,31,33,40,30,47,32,31,33,37,30,39,32,31,33,33,32,45,32,31,33,25,33,19,32,32,33,25,34,16,32,32,33,25,35,16,32,33,33,23,36,19,33,34,33,26,35,21,33,34,32,29,34,27,33,34,32,34,33,29,33,33,32,30,33,35,33,33,33,36,31,35,33,33,32,37,31,37,33,33,32,36,31,33,33,33,32,32,32,42,33,33,32,37,31,37,33,32,32,35,32,38,33,32,32,34,32,37,33,32,32,34,32,38,32,32,32,33,32,35,32,32,32,33,32,34,32,32,32,32,32,34,32,32,32,33,32,32,32,32,32,32,33,32,32,32,32,33,33,32,32,32,32,32,33,33,32,32,32,33,33,32,32,32,32,32,33,33,up
31,30,33,62,24,93,32,31,33,48,28,60,32,31,33,41,29,48,32,31,33,38,30,38,32,31,32,33,31,45,32,32,32,24,34,17,32,32,33,24,35,18,32,33,33,25,35,16,32,33,32,24,36,18,33,34,33,26,35,24,33,33,33,32,33,27,33,34,32,30,33,30,33,33,32,32,33,32,33,34,32,34,32,36,33,33,32,37,32,33,33,33,32,34,32,38,33,33,32,36,32,37,33,33,32,36,32,40,33,32,32,35,32,39,33,32,32,34,32,38,33,32,32,34,32,36,33,32,32,34,32,36,32,32,32,33,32,35,32,32,32,33,33,33,32,32,32,32,33,32,32,32,32,32,33,32,32,33,33,32,33,32,32,33,32,32,32,32,32,33,32,32,32,32,32,32,32,32,32,33,up
31,30,33,68,24,87,31,31,33,47,27,59,32,31,33,41,29,46,32,31,33,38,30,38,32,31,33,32,32,45,32,32,32,24,35,20,32,32,33,25,35,18,32,33,32,24,36,16,32,33,33,23,36,22,33,33,33,28,34,21,33,34,33,32,33,26,33,33,32,30,33,30,33,33,32,32,32,34,33,33,32,35,32,33,33,33,32,35,32,34,33,33,32,34,32,38,33,33,32,35,32,37,33,33,32,35,32,37,33,33,32,35,32,36,33,32,32,34,32,38,33,32,32,34,32,36,33,32,32,33,32,35,33,32,32,34,32,34,32,32,32,33,32,35,32,32,32,33,32,33,32,32,32,32,33,33,32,32,32,33,32,32,32,32,32,32,33,32,32,32,32,32,33,32,32,32,32,32,33,32,up
31,30,33,65,24,90,31,31,33,48,27,59,32,31,33,38,29,49,32,31,33,36,30,39,32,31,33,34,31,45,32,32,32,23,34,17,32,32,32,25,36,19,32,33,33,26,36,16,32,33,32,25,36,17,33,33,33,26,35,22,33,34,33,30,34,26,33,34,32,32,33,30,33,34,32,32,32,34,33,33,32,35,32,36,33,33,32,36,31,37,33,33,32,36,32,37,33,33,32,34,32,38,33,32,32,35,32,38,33,32,32,34,32,37,33,32,32,34,32,36,33,32,32,33,32,35,33,32,32,33,32,35,33,32,32,33,32,35,32,32,32,33,32,34,33,32,32,33,32,33,32,32,32,33,32,33,32,32,32,32,32,33,32,32,32,32,32,33,32,32,32,32,32,32,32,32,32,32,33,32,up
31,30,33,65,22,88,31,30,33,45,27,55,31,30,33,36,30,42,32,31,33,35,32,32,32,31,33,31,33,42,32,32,33,24,35,17,32,33,33,24,35,19,33,33,32,25,35,17,33,33,32,25,34,23,33,34,32,31,33,26,33,33,32,32,33,29,33,33,32,33,33,32,33,33,32,37,32,34,33,33,32,36,32,35,33,33,32,35,32,39,33,33,32,34,32,40,33,32,32,35,32,37,33,32,32,33,32,40,33,32,32,35,32,36,32,32,32,33,32,37,33,32,32,33,32,33,32,32,32,32,32,34,32,32,32,33,32,34,32,32,32,33,32,33,32,32,32,33,32,33,32,32,32,32,32,33,32,32,32,32,32,32,32,32,32,32,33,32,32,32,32,32,32,32,32,32,32,32,32,32,up
31,30,33,63,25,90,31,30,33,45,28,59,32,30,33,37,30,46,32,31,33,35,31,35,32,31,32,31,33,41,32,32,32,25,35,17,32,32,33,25,35,19,32,33,32,27,35,16,32,33,32,26,35,18,33,34,33,30,34,27,33,33,32,31,33,30,33,34,33,32,34,32,33,33,32,34,33,34,33,33,32,34,32,34,33,33,32,35,32,35,33,33,32,34,31,38,33,32,32,35,31,35,33,33,32,33,32,38,33,33,32,35,32,36,33,32,32,33,32,38,33,32,32,35,32,35,33,32,32,33,32,36,32,32,32,34,32,35,32,32,32,33,32,34,32,32,32,33,32,33,32,32,32,32,33,32,32,32,32,32,33,32,32,32,32,32,33,32,32,33,32,32,33,32,32,32,32,32,32,32,up
30,31,33,61,24,87,31,31,33,47,27,57,32,31,33,40,29,47,32,31,33,34,32,41,32,31,33,34,32,46,32,31,32,26,35,18,32,32,32,24,35,18,32,32,32,25,35,19,32,33,32,26,34,17,33,33,32,24,34,20,33,34,33,32,33,25,33,34,32,31,33,30,33,33,32,33,33,32,33,33,32,36,32,36,33,33,32,37,32,33,33,33,32,33,32,40,33,33,32,35,32,36,33,33,32,34,32,37,33,32,32,34,32,39,33,33,32,35,32,36,33,32,32,34,32,37,33,32,32,34,32,35,32,32,32,33,32,36,32,32,32,33,32,33,32,32,32,32,33,33,32,32,32,32,33,32,32,32,32,32,33,32,32,32,32,32,32,32,32,32,32,32,32,32,32,32,32,32,32,33,up
31,30,33,68,23,88,31,31,33,45,27,59,32,31,33,38,30,47,32,31,33,36,31,37,32,31,33,32,32,43,32,32,33,24,35,18,32,32,33,25,35,18,32,33,32,26,35,17,33,33,32,25,35,19,33,34,33,30,34,24,33,33,33,32,33,29,33,33,32,31,33,32,33,33,32,33,32,35,33,33,32,35,32,34,33,33,32,34,32,35,33,33,32,34,32,38,33,33,32,35,32,37,33,32,32,34,32,36,33,33,32,34,32,36,33,32,32,34,32,35,33,32,32,33,32,35,33,32,32,34,32,34,33,32,32,33,32,34,33,32,32,33,32,34,33,32,32,33,32,34,32,32,32,33,32,33,32,32,32,33,32,33,32,32,32,32,32,33,32,32,32,32,32,33,32,32,32,32,32,32,up
31,30,33,67,25,89,31,31,33,46,28,59,32,31,33,37,30,47,32,31,33,37,31,36,32,31,32,33,33,42,32,32,33,24,34,18,32,32,33,25,35,19,32,33,33,26,35,17,32,33,32,24,35,20,33,34,33,28,34,26,33,33,32,31,33,29,33,33,32,32,33,31,33,33,32,34,33,33,33,33,32,34,32,34,33,33,32,35,32,34,33,33,32,34,32,37,33,33,32,34,32,36,33,33,32,34,32,37,33,33,32,34,32,37,33,32,32,34,32,36,33,32,32,34,32,36,33,32,32,34,32,34,33,32,32,33,32,35,33,32,32,33,32,34,32,32,32,33,32,33,32,32,32,33,32,33,32,32,32,33,32,33,32,32,32,32,33,33,32,32,32,32,32,32,32,32,32,32,33,32,up
31,31,33,59,31,96,32,31,33,51,30,60,32,31,33,43,30,47,32,31,33,36,30,39,32,31,33,33,32,45,33,32,33,25,33,16,32,32,33,21,34,17,33,33,33,22,35,19,33,34,33,26,35,15,33,34,33,29,34,24,33,34,33,32,33,28,33,34,33,31,33,32,33,34,33,33,33,34,33,34,33,35,32,36,33,33,33,35,32,35,33,33,33,34,32,40,33,33,33,37,31,36,33,33,33,35,32,37,33,33,33,35,32,35,33,33,33,33,32,36,33,33,33,33,32,34,33,33,33,33,32,36,33,33,33,34,32,34,33,33,33,32,32,34,33,33,33,33,32,33,33,33,33,33,32,33,33,33,33,33,32,33,33,33,33,32,32,32,33,33,33,33,33,32,33,33,33,32,32,33,up
31,31,33,66,25,89,32,31,33,48,28,59,32,31,33,40,30,46,32,31,33,36,31,37,32,31,33,31,32,42,33,32,33,24,34,17,33,33,33,24,35,18,33,33,33,25,35,17,33,34,33,24,35,20,33,34,33,29,33,24,33,34,33,32,33,29,33,34,33,31,33,31,33,34,33,36,32,34,33,33,33,34,32,33,33,33,33,36,32,36,33,33,33,32,33,39,33,33,33,35,32,34,33,33,33,32,32,40,33,33,33,36,32,36,33,33,33,33,32,38,33,33,33,35,32,35,33,33,33,34,32,35,33,33,33,33,32,35,33,33,33,33,32,34,33,33,33,33,32,33,33,33,33,32,32,32,33,33,33,32,33,33,33,33,33,32,32,32,33,33,33,32,32,33,33,33,33,33,32,32,up
31,31,33,60,28,91,32,31,33,45,31,61,32,31,33,37,32,49,32,31,33,36,32,37,32,31,33,33,33,42,33,32,33,25,34,18,33,32,33,25,33,21,33,33,33,28,33,16,33,34,33,27,34,17,33,34,33,29,33,28,33,33,33,31,33,28,33,34,33,31,33,30,33,34,33,31,33,31,33,34,33,33,33,33,33,34,33,34,32,33,33,33,33,34,32,36,33,33,33,35,32,36,33,33,33,35,32,38,33,33,33,35,32,38,33,33,33,35,32,39,33,33,33,35,32,37,33,33,33,34,32,37,33,33,33,34,32,35,33,33,33,32,33,33,33,33,33,33,33,32,33,33,33,32,33,32,33,33,33,32,33,31,33,33,33,32,33,32,33,33,33,33,33,32,33,33,33,32,32,33,up
31,31,33,60,29,83,32,31,33,43,30,57,32,32,33,39,31,47,32,31,33,37,31,40,32,31,33,35,31,45,33,32,33,26,33,21,33,32,33,27,33,19,33,33,33,26,34,19,33,33,33,26,34,19,33,34,33,26,35,21,33,34,33,29,34,26,33,34,33,32,33,28,33,34,33,32,33,30,33,34,33,33,33,33,33,34,33,34,32,36,33,33,33,35,33,34,33,33,33,33,33,39,33,33,33,34,32,38,33,33,33,35,32,38,33,33,33,35,32,36,33,33,33,34,31,36,33,33,33,33,32,35,33,33,33,33,32,35,33,33,33,33,32,34,33,33,33,33,32,34,33,33,33,33,33,33,33,33,33,33,32,33,33,33,33,33,32,32,33,33,33,32,33,33,33,33,33,32,33,32,up
31,31,33,58,29,86,32,31,33,45,30,56,32,31,33,37,31,44,32,31,33,36,31,35,32,31,33,32,33,41,33,32,33,27,34,17,33,33,33,25,35,19,33,33,33,25,35,18,33,34,33,26,34,21,33,34,33,29,33,26,33,34,33,27,32,31,33,34,33,36,32,31,33,34,33,33,33,32,33,34,33,36,32,35,33,33,33,34,32,40,33,33,33,39,32,33,33,33,33,31,32,41,33,33,33,37,31,37,33,33,33,33,32,39,33,33,33,35,32,34,33,33,33,32,33,36,33,33,33,34,32,32,33,33,33,31,33,34,33,33,33,34,33,32,33,33,33,32,33,33,33,33,33,33,32,32,33,33,33,33,32,33,33,33,33,33,32,32,33,33,33,32,32,33,33,33,33,33,32,32,up
31,30,33,59,26,82,32,30,33,45,28,50,32,31,33,35,30,36,32,32,33,31,32,30,32,32,33,31,33,41,33,33,33,25,34,19,33,33,33,25,35,21,33,33,33,28,34,21,33,34,33,31,33,28,33,33,33,32,33,29,33,33,33,32,33,33,33,33,33,34,33,32,33,33,33,33,32,34,33,33,33,37,32,33,33,33,33,34,32,38,33,33,33,34,32,36,33,33,33,34,32,40,33,33,33,35,32,33,33,33,33,31,33,40,33,33,33,34,32,36,33,33,33,34,32,34,33,33,33,33,32,33,33,33,33,33,32,32,33,33,33,32,33,32,33,33,33,32,33,32,33,33,33,32,33,32,33,33,33,32,33,33,33,33,33,32,32,32,33,33,33,32,33,33,33,33,33,33,32,32,up
31,30,33,55,28,89,32,31,33,45,29,54,32,31,33,38,29,39,32,31,33,31,32,31,32,32,33,32,33,42,32,33,33,26,34,18,33,33,33,24,35,18,33,34,33,26,35,21,33,34,33,31,34,25,33,33,33,30,33,30,33,34,33,33,32,31,33,34,33,31,33,34,33,33,33,36,31,32,33,33,33,33,32,36,33,33,33,36,32,34,33,33,33,33,32,40,33,33,33,38,32,34,33,33,33,32,32,40,33,33,33,36,32,35,33,33,33,32,32,37,33,33,33,35,32,33,33,33,33,32,33,34,33,33,33,33,33,31,33,33,33,31,33,34,33,33,33,34,33,30,33,33,33,31,33,33,33,33,33,33,32,32,33,33,33,32,33,33,33,33,33,33,32,32,33,33,33,32,33,33,up
31,31,33,58,24,77,32,31,33,40,29,54,32,31,33,36,30,43,32,31,33,34,31,35,32,32,33,32,32,40,33,32,33,27,35,22,33,33,33,28,34,21,33,33,33,28,34,21,33,34,33,30,34,22,33,33,33,29,34,27,33,33,33,30,33,31,33,34,33,33,32,30,33,33,33,31,33,33,33,33,33,35,32,33,33,33,33,34,32,35,33,33,33,35,32,32,33,33,33,32,32,39,33,33,33,36,32,31,33,33,33,30,33,39,33,33,33,35,32,33,33,33,33,32,32,37,33,33,33,35,32,33,33,33,33,31,32,37,33,33,33,35,32,32,33,33,33,32,32,35,33,33,33,34,32,32,33,33,33,32,32,34,33,33,33,33,32,33,33,33,33,32,33,33,33,33,33,33,32,32,up
31,31,33,54,26,78,32,31,33,43,29,53,32,31,33,35,31,43,32,31,33,34,31,36,32,32,33,33,32,41,33,32,33,26,34,21,33,33,33,26,35,21,33,33,33,28,34,21,33,33,33,27,34,22,33,34,33,29,33,27,33,33,33,31,33,30,33,34,33,33,32,31,33,33,33,32,33,33,33,33,33,36,32,32,33,33,33,33,32,35,33,33,33,34,32,33,33,33,33,32,32,37,33,33,33,34,32,34,33,33,33,32,32,38,33,33,33,34,32,35,33,33,33,33,32,37,33,33,33,34,32,35,33,33,33,34,32,35,33,33,33,33,32,34,33,33,33,32,33,33,33,33,33,32,33,32,33,33,33,32,33,32,33,33,33,32,33,32,33,33,33,33,32,32,33,33,33,33,32,33,up
31,31,33,55,25,78,32,31,33,40,29,55,32,31,33,37,30,44,32,31,33,36,31,36,32,32,33,32,32,41,33,32,33,27,34,22,33,33,33,28,34,20,33,33,33,29,35,19,33,33,33,27,35,23,33,34,33,29,34,25,33,34,33,30,33,29,33,34,33,31,33,31,33,34,33,31,33,33,33,33,33,32,32,35,33,33,33,35,31,34,33,33,33,34,32,35,33,33,33,35,32,36,33,33,33,34,32,35,33,33,33,35,32,34,33,33,33,33,32,35,33,33,33,34,32,34,33,33,33,33,32,35,33,33,33,34,32,33,33,33,33,32,32,36,33,33,33,34,32,34,33,33,33,33,32,34,33,33,33,33,32,34,33,33,33,33,32,33,33,33,33,33,33,32,33,33,33,33,32,32,up
31,31,34,54,27,72,32,32,33,39,30,52,32,32,33,36,31,43,32,31,33,35,31,36,32,32,33,32,32,40,32,32,33,26,34,23,33,33,33,28,34,23,33,33,33,29,33,22,33,33,33,28,34,24,33,34,33,30,33,27,33,33,33,32,32,30,33,33,33,32,33,30,33,33,33,32,33,33,33,33,33,34,33,32,33,33,33,34,32,33,33,33,33,32,32,35,33,33,33,34,32,35,33,33,33,33,32,36,33,33,33,34,32,34,33,33,33,32,32,36,33,33,33,34,32,34,33,33,33,32,32,36,33,33,33,34,32,34,33,33,33,32,32,35,33,33,33,33,32,33,33,33,33,33,32,34,33,33,33,33,32,33,33,33,33,33,32,33,33,33,33,33,33,32,33,33,33,33,32,33,up
31,31,33,54,27,80,32,31,33,43,29,53,32,31,33,38,30,42,32,31,33,34,32,34,32,32,33,32,33,40,33,32,33,27,35,19,33,33,33,26,35,20,33,33,33,25,35,20,33,34,33,28,34,22,33,34,33,29,34,28,33,34,33,32,33,30,33,33,33,32,32,33,33,34,33,35,32,34,33,33,33,34,32,36,33,33,33,36,32,34,33,33,33,32,32,38,33,33,33,35,32,35,33,33,33,33,32,36,33,33,33,34,32,33,33,33,33,32,32,36,33,33,33,34,32,34,33,33,33,33,32,35,33,33,33,34,32,33,33,33,33,33,32,34,33,33,33,34,32,34,33,33,33,33,32,33,33,33,33,33,32,32,33,33,33,32,32,32,33,33,33,32,33,33,33,33,33,33,33,32,up
31,31,33,49,27,72,32,32,33,38,30,52,32,32,33,36,31,44,32,32,33,35,31,38,32,32,33,33,31,42,33,32,33,29,33,23,33,33,33,30,34,22,33,33,33,29,34,21,33,33,33,27,35,23,33,33,33,27,35,24,33,34,33,29,33,28,33,33,33,28,33,29,33,34,33,30,33,33,33,34,33,33,32,32,33,34,33,35,31,34,33,33,33,35,32,34,33,33,33,36,32,35,33,33,33,35,32,36,33,33,33,35,32,36,33,33,33,34,33,37,33,33,33,34,32,35,33,33,33,34,32,37,33,33,33,33,32,35,33,33,33,33,33,34,33,33,33,32,32,33,33,33,33,33,32,32,33,33,33,32,32,33,33,33,33,33,32,32,33,33,33,32,32,33,33,33,33,32,32,32,up
31,31,33,50,30,87,32,31,33,41,31,58,32,30,33,42,30,40,32,31,33,34,32,32,32,32,33,31,33,40,33,32,33,28,34,21,33,33,33,28,33,16,33,34,33,25,35,20,33,34,33,29,34,25,33,34,33,32,33,29,33,33,33,33,33,31,33,33,33,32,33,34,33,33,33,32,33,34,33,33,33,32,32,35,33,33,33,33,32,35,33,33,33,32,32,38,33,33,33,35,31,36,33,33,33,33,31,36,33,33,33,34,32,33,33,33,33,33,33,35,33,33,33,33,33,32,33,33,33,33,34,33,33,33,33,32,33,33,33,33,33,34,32,33,33,33,33,31,32,34,33,33,33,34,32,32,33,33,33,32,32,35,33,33,33,35,32,32,33,33,33,32,32,35,33,33,33,34,32,32,up
31,31,33,57,34,85,32,31,33,39,33,59,32,31,33,37,32,45,32,31,33,34,32,36,32,32,33,31,33,41,33,32,33,27,32,21,33,33,33,28,33,18,33,33,33,27,33,19,33,34,33,28,33,22,33,34,33,30,33,27,33,33,33,30,33,30,33,33,33,31,33,33,33,33,33,33,33,32,33,33,33,33,33,34,33,33,33,35,33,34,33,33,33,34,32,36,33,33,33,34,32,34,33,33,33,33,31,36,33,33,33,34,31,36,33,33,33,34,31,36,33,33,33,33,32,35,33,33,33,34,33,36,33,33,33,34,33,34,33,33,33,33,33,33,33,33,33,32,34,35,33,33,33,34,33,31,33,33,33,32,32,34,33,33,33,33,32,32,33,33,33,32,32,32,33,33,33,33,32,32,up
31,31,34,55,27,81,31,31,33,39,30,53,32,31,33,35,31,39,32,32,33,33,32,32,32,32,33,32,33,41,33,33,33,26,34,22,33,33,33,28,34,20,33,33,33,29,34,22,33,33,33,29,34,26,33,33,33,30,33,30,33,33,33,32,33,30,33,33,33,33,32,32,33,33,33,32,32,33,33,33,33,34,32,34,33,33,33,33,32,35,33,33,33,35,32,33,33,33,33,31,32,37,33,33,33,35,32,34,33,33,33,32,33,37,33,33,33,35,32,33,33,33,33,32,33,37,33,33,33,35,32,32,33,33,33,32,32,36,33,33,33,34,32,32,33,33,33,32,33,33,33,33,33,33,32,33,33,33,33,33,32,33,33,33,33,32,32,33,33,33,33,32,32,33,33,33,33,33,32,32,up
31,31,34,62,25,77,32,31,33,46,28,53,32,31,33,35,30,43,32,32,33,34,32,35,32,32,33,32,33,40,33,32,33,25,35,21,33,33,33,24,35,22,33,33,33,27,35,21,33,33,33,26,34,22,33,34,33,31,33,27,33,33,33,30,33,31,33,34,33,34,32,32,33,33,33,35,32,33,33,33,33,35,32,32,33,33,33,34,32,36,33,33,33,35,32,35,33,33,33,34,32,36,33,33,33,33,32,37,33,33,33,34,32,35,33,33,33,33,32,37,33,33,33,34,32,34,33,33,33,33,32,35,33,33,33,33,32,34,33,33,33,33,32,34,33,33,33,33,32,33,33,33,33,33,32,33,33,33,33,32,32,32,33,33,33,32,33,32,33,33,33,32,33,32,33,33,33,33,32,32,up
31,31,33,59,24,77,31,31,33,39,29,53,32,31,33,36,31,41,32,32,33,35,31,34,32,32,33,32,33,40,33,32,33,27,35,22,33,33,33,28,34,20,33,33,33,27,35,21,33,33,33,26,34,25,33,34,33,31,33,27,33,33,33,30,33,30,33,34,33,32,32,33,33,33,33,33,32,34,33,33,33,36,32,32,33,33,33,33,33,36,33,33,33,35,32,34,33,33,33,33,32,37,33,33,33,36,32,34,33,33,33,32,32,37,33,33,33,35,32,34,33,33,33,32,32,37,33,33,33,35,32,34,33,33,33,32,32,36,33,33,33,34,32,33,33,33,33,32,32,34,33,33,33,33,32,32,33,33,33,32,33,33,33,33,33,33,33,32,33,33,33,32,33,33,33,33,33,33,33,32,up
31,31,34,64,25,77,32,31,33,42,29,54,32,32,33,37,30,44,32,32,33,35,31,38,32,32,33,34,32,42,33,32,33,26,34,22,33,33,33,28,34,21,33,33,33,27,35,21,33,33,33,27,34,22,33,33,33,27,34,25,33,34,33,29,34,28,33,34,33,32,33,30,33,33,33,33,33,32,33,33,33,35,32,32,33,33,33,34,32,35,33,33,33,34,32,33,33,33,33,32,32,37,33,33,33,33,32,35,33,33,33,34,32,37,33,33,33,34,32,36,33,33,33,34,32,36,33,33,33,33,32,36,33,33,33,34,32,34,33,33,33,32,32,35,33,33,33,34,32,33,33,33,33,32,33,33,33,33,33,33,32,32,33,33,33,33,33,33,33,33,33,33,33,32,33,33,33,33,32,32,up
31,31,33,56,22,86,32,31,33,38,29,58,32,31,33,35,31,45,32,31,33,35,31,36,32,32,33,33,32,41,33,32,33,28,35,19,33,33,33,29,35,18,33,33,33,29,34,18,33,33,33,27,35,21,33,34,33,28,35,25,33,34,33,31,34,28,33,34,33,29,34,33,33,34,33,33,32,33,33,33,33,32,32,35,33,33,33,36,32,32,33,33,33,32,32,40,33,33,33,35,31,34,33,33,33,32,32,41,33,33,33,36,31,35,33,33,33,33,32,38,33,33,33,35,31,36,33,33,33,34,32,37,33,33,33,35,32,34,33,33,33,33,32,33,33,33,33,33,33,32,33,33,33,32,33,32,33,33,33,32,33,32,33,33,33,32,32,32,33,33,33,33,32,32,33,33,33,33,32,33,up
31,31,33,55,23,83,32,32,33,42,28,58,32,31,33,38,30,46,32,31,33,36,31,38,32,32,33,34,32,43,33,32,33,27,35,20,33,32,33,28,35,19,33,33,33,27,35,18,33,33,33,27,35,20,33,34,33,27,35,24,33,34,33,31,34,29,33,33,33,29,34,32,33,34,33,31,32,34,33,33,33,36,32,32,33,33,33,33,32,35,33,33,33,34,32,35,33,33,33,35,31,37,33,33,33,36,32,33,33,33,33,31,32,39,33,33,33,34,32,34,33,33,33,33,32,37,33,33,33,34,32,36,33,33,33,33,32,35,33,33,33,33,32,35,33,33,33,33,32,33,33,33,33,32,32,34,33,33,33,33,33,32,33,33,33,32,33,32,33,33,33,32,33,32,33,33,33,32,33,33,up
31,31,33,54,24,83,32,31,33,42,29,57,32,31,33,36,31,46,32,31,33,35,32,37,32,32,33,33,32,42,33,32,33,28,35,19,33,33,33,28,35,19,33,33,33,28,35,19,33,34,33,27,35,21,33,34,33,28,34,26,33,34,33,30,33,29,33,34,33,32,32,32,33,33,33,33,32,34,33,33,33,36,32,34,33,33,33,35,32,35,33,33,33,34,32,35,33,33,33,34,32,37,33,33,33,34,32,35,33,33,33,33,32,37,33,33,33,34,32,35,33,33,33,34,32,35,33,33,33,33,32,36,33,33,33,34,32,34,33,33,33,33,32,34,33,33,33,33,32,32,33,33,33,32,33,33,33,33,33,33,33,32,33,33,33,32,32,33,33,33,33,33,33,32,33,33,33,32,33,32,up
31,31,33,54,29,83,32,31,33,42,31,55,32,32,33,37,31,46,32,31,33,36,31,38,32,32,33,34,32,43,33,32,33,28,33,19,33,33,33,28,34,20,33,33,33,28,34,19,33,33,33,27,35,21,33,34,33,28,34,24,33,34,33,29,34,28,33,34,33,30,33,30,33,34,33,32,33,34,33,34,33,34,32,32,33,33,33,34,32,35,33,33,33,36,32,34,33,33,33,34,33,36,33,33,33,34,32,36,33,33,33,33,32,38,33,33,33,35,32,35,33,33,33,32,32,38,33,33,33,34,31,36,33,33,33,33,32,36,33,33,33,33,32,34,33,33,33,33,32,33,33,33,33,33,32,33,33,33,33,32,33,32,33,33,33,32,33,32,33,33,33,32,33,32,33,33,33,32,33,32,up
31,31,33,52,28,81,32,32,33,45,30,57,32,32,33,38,31,48,32,31,33,35,31,41,32,32,33,34,32,44,33,32,33,28,33,20,33,32,33,27,33,20,33,33,33,28,34,19,33,33,33,28,34,20,33,34,33,27,34,21,33,34,33,29,34,27,33,34,33,30,33,30,33,34,33,32,33,32,33,34,33,32,33,32,33,34,33,35,32,34,33,33,33,34,32,33,33,33,33,33,32,36,33,33,33,33,32,36,33,33,33,35,32,36,33,33,33,34,32,37,33,33,33,35,32,37,33,33,33,34,32,36,33,33,33,35,32,36,33,33,33,33,32,35,33,33,33,33,32,34,33,33,33,32,32,33,33,33,33,32,32,32,33,33,33,32,32,32,33,33,33,32,33,32,33,33,33,32,33,32,up
31,31,33,57,27,83,32,31,33,41,30,57,32,31,33,38,31,46,32,31,33,37,31,37,32,32,33,33,32,42,33,32,33,27,34,19,33,33,33,28,34,19,33,33,33,27,35,19,33,34,33,25,35,21,33,34,33,28,34,25,33,34,33,30,33,30,33,34,33,31,33,32,33,34,33,32,33,35,33,33,33,35,32,33,33,33,33,34,32,35,33,33,33,34,32,35,33,33,33,35,32,36,33,33,33,34,32,34,33,33,33,34,32,36,33,33,33,34,32,35,33,33,33,34,32,35,33,33,33,33,32,36,33,33,33,34,32,34,33,33,33,33,32,35,33,33,33,33,32,34,33,33,33,33,32,34,33,33,33,33,32,32,33,33,33,32,32,32,33,33,33,33,32,33,33,33,33,32,33,32,up
31,31,33,58,28,84,32,31,33,44,29,57,32,31,33,37,31,46,32,31,33,36,31,38,32,32,33,32,32,43,33,32,33,27,33,19,33,33,33,26,34,19,33,33,33,27,34,18,33,33,33,26,35,21,33,34,33,28,34,24,33,34,33,31,34,28,33,34,33,32,33,33,33,34,33,33,33,33,33,33,33,34,32,36,33,33,33,36,32,34,33,33,33,33,32,37,33,33,33,34,32,36,33,33,33,33,32,36,33,33,33,35,32,34,33,33,33,33,32,37,33,33,33,34,32,35,33,33,33,33,32,35,33,33,33,34,32,35,33,33,33,33,32,35,33,33,33,33,32,33,33,33,33,32,33,33,33,33,33,33,32,32,33,33,33,32,33,32,33,33,33,32,32,32,33,33,33,32,33,32,up
31,31,33,57,26,83,32,31,33,42,29,56,32,31,33,38,30,43,32,31,33,36,32,34,32,32,33,32,33,40,33,32,33,26,34,20,33,33,33,26,34,19,33,33,33,25,35,20,33,34,33,26,34,22,33,34,33,30,34,28,33,34,33,31,33,30,33,34,33,33,33,33,33,33,33,34,33,33,33,33,33,35,32,34,33,33,33,34,32,35,33,33,33,35,32,35,33,33,33,33,32,35,33,33,33,34,32,34,33,33,33,32,32,37,33,33,33,34,32,33,33,33,33,32,32,36,33,33,33,34,32,34,33,33,33,33,32,36,33,33,33,34,32,33,33,33,33,33,32,34,33,33,33,33,32,33,33,33,33,33,32,33,33,33,33,33,32,33,33,33,33,33,32,33,33,33,33,32,33,33,up
30,31,33,56,26,70,32,32,33,41,30,51,32,32,33,37,31,43,32,32,33,36,31,39,32,32,33,35,31,43,33,32,33,28,33,25,33,32,33,28,34,23,33,33,33,28,34,23,33,33,33,27,34,23,33,33,33,27,34,25,33,34,33,30,34,26,33,33,33,31,33,29,33,34,33,33,33,30,33,33,33,33,33,33,33,33,33,35,33,30,33,33,33,33,33,34,33,33,33,33,32,32,33,33,33,32,32,35,33,33,33,33,32,32,33,33,33,33,32,35,33,33,33,34,32,35,33,33,33,34,32,35,33,33,33,34,32,37,33,33,33,34,32,35,33,33,33,33,32,37,33,33,33,34,32,34,33,33,33,33,32,34,33,33,33,33,32,33,33,33,33,32,33,33,33,33,33,32,33,32,up
31,31,33,49,28,67,32,32,33,40,30,49,32,32,33,36,31,42,32,32,33,35,31,39,32,32,33,35,31,43,33,32,33,30,32,27,33,32,33,29,33,26,33,32,33,30,34,25,33,33,33,29,34,24,33,33,33,27,34,25,33,33,33,28,34,26,33,33,33,30,34,26,33,34,33,31,33,29,33,34,33,32,33,31,33,33,33,34,33,31,33,33,33,33,32,33,33,33,33,35,32,34,33,33,33,32,32,35,33,33,33,34,32,33,33,33,33,32,32,35,33,33,33,34,32,32,33,33,33,32,33,35,33,33,33,33,32,32,33,33,33,32,32,35,33,33,33,33,32,34,33,33,33,33,32,34,33,33,33,33,32,35,33,33,33,34,32,34,33,33,33,33,32,35,33,33,33,33,32,34,up
30,31,33,57,28,72,31,32,33,41,30,52,32,32,33,38,31,44,32,32,33,36,31,39,32,32,33,34,31,43,32,32,33,27,33,25,33,32,33,28,34,23,33,33,33,27,34,22,33,33,33,26,35,23,33,33,33,28,34,24,33,34,33,30,34,25,33,34,33,31,33,29,33,34,33,32,33,32,33,34,33,34,33,31,33,33,33,33,33,33,33,33,33,33,32,33,33,33,33,32,32,36,33,33,33,35,32,33,33,33,33,33,32,36,33,33,33,34,32,34,33,33,33,33,32,36,33,33,33,34,32,35,33,33,33,33,32,36,33,33,33,34,32,35,33,33,33,33,32,35,33,33,33,33,32,35,33,33,33,33,32,34,33,33,33,33,32,33,33,33,33,33,32,32,33,33,33,32,33,32,up
30,31,34,55,28,75,32,32,33,43,30,54,32,32,33,39,31,45,32,32,33,36,31,41,32,32,33,34,31,44,33,32,33,28,33,24,33,32,33,27,34,21,33,33,33,26,34,21,33,33,33,27,34,21,33,33,33,27,34,21,33,34,33,30,33,25,33,34,33,31,33,29,33,34,33,31,33,31,33,34,33,33,33,33,33,34,33,34,33,33,33,33,33,33,33,36,33,33,33,35,32,36,33,33,33,34,32,36,33,33,33,34,32,36,33,33,33,34,32,38,33,33,33,34,32,35,33,33,33,33,32,37,33,33,33,34,32,35,33,33,33,33,32,35,33,33,33,33,32,34,33,33,33,32,32,33,33,33,33,32,33,32,33,33,33,32,33,32,33,33,33,32,33,32,33,33,33,32,33,32,up
31,31,33,56,27,82,32,32,33,43,30,56,32,32,33,37,31,47,32,31,33,38,30,39,32,31,33,34,31,44,33,32,33,27,34,20,33,32,33,27,34,21,33,33,33,26,34,19,33,33,33,24,35,22,33,34,33,29,34,22,33,34,33,30,33,28,33,34,33,33,32,31,33,33,33,32,33,33,33,33,33,34,33,32,33,33,33,33,32,35,33,33,33,34,32,32,33,33,33,33,32,36,33,33,33,35,32,35,33,33,33,34,32,35,33,33,33,34,32,36,33,33,33,34,32,36,33,33,33,34,32,37,33,33,33,34,32,35,33,33,33,33,32,35,33,33,33,33,32,35,33,33,33,33,32,33,33,33,33,32,32,33,33,33,33,33,32,33,33,33,33,32,33,33,33,33,33,32,33,32,up
31,31,34,52,27,73,32,32,33,42,30,53,32,32,33,39,31,45,32,32,33,35,31,40,32,32,33,34,31,44,33,32,33,29,33,25,33,32,33,27,34,22,33,33,33,27,34,22,33,33,33,27,34,21,33,33,33,28,34,22,33,34,33,30,34,24,33,34,33,32,33,28,33,34,33,31,34,31,33,34,33,34,33,32,33,34,33,33,33,33,33,33,33,34,32,35,33,33,33,32,32,38,33,33,33,36,31,35,33,33,33,34,31,38,33,33,33,35,31,35,33,33,33,33,32,37,33,33,33,35,32,34,33,33,33,33,32,35,33,33,33,33,32,34,33,33,33,33,32,34,33,33,33,33,32,33,33,33,33,33,32,33,33,33,33,32,32,32,33,33,33,33,32,33,33,33,33,32,32,33,up
31,31,34,56,28,74,32,31,33,41,31,52,32,32,33,35,32,44,32,32,33,36,31,37,32,32,33,34,32,42,33,32,33,27,33,23,33,32,33,29,34,22,33,33,33,29,34,20,33,33,33,26,35,22,33,34,33,28,34,24,33,34,33,31,34,25,33,34,33,30,34,29,33,34,33,34,33,31,33,34,33,33,33,33,33,33,33,33,32,34,33,33,33,34,32,37,33,33,33,34,32,37,33,33,33,33,31,38,33,33,33,35,31,38,33,33,33,35,31,36,33,33,33,33,32,37,33,33,33,34,32,35,33,33,33,32,32,35,33,33,33,33,32,33,33,33,33,32,33,33,33,33,33,33,32,32,33,33,33,32,33,32,33,33,33,32,33,32,33,33,33,33,32,33,33,33,33,32,32,32,up
31,31,33,51,27,74,32,32,33,42,29,51,32,32,33,36,31,44,32,32,33,36,31,38,32,32,33,34,32,43,32,32,33,28,34,23,33,32,33,29,34,23,33,33,33,28,34,21,33,33,33,27,35,22,33,34,33,28,34,25,33,34,33,31,34,26,33,34,33,30,33,30,33,34,33,33,33,31,33,34,33,34,33,33,33,33,33,35,32,33,33,33,33,32,32,37,33,33,33,35,32,35,33,33,33,33,32,37,33,33,33,34,31,36,33,33,33,33,32,37,33,33,33,35,32,34,33,33,33,32,32,35,33,33,33,33,32,34,33,33,33,32,32,34,33,33,33,33,32,33,33,33,33,32,33,33,33,33,33,33,32,33,33,33,33,33,32,33,33,33,33,33,32,33,33,33,33,33,32,33,up
31,31,33,53,26,80,32,31,33,43,29,54,32,31,33,38,30,44,32,31,33,35,31,35,32,32,33,32,33,41,33,32,33,27,34,20,33,33,33,26,35,21,33,33,33,26,35,21,33,34,33,27,35,22,33,34,33,31,34,27,33,34,33,32,33,29,33,34,33,32,33,32,33,33,33,35,33,33,33,33,33,34,32,33,33,33,33,33,32,35,33,33,33,33,32,37,33,33,33,35,32,34,33,33,33,33,32,36,33,33,33,34,32,35,33,33,33,34,32,35,33,33,33,33,32,35,33,33,33,34,32,35,33,33,33,33,32,34,33,33,33,33,32,34,33,33,33,33,32,34,33,33,33,33,32,33,33,33,33,33,33,33,33,33,33,32,32,32,33,33,33,32,33,32,33,33,33,32,33,33,up
31,31,33,57,28,73,31,31,33,41,30,51,32,31,33,36,31,42,32,32,33,35,31,35,32,32,33,32,32,41,33,32,33,27,34,22,33,33,33,27,34,23,33,33,33,27,34,22,33,33,33,27,35,25,33,34,33,30,33,25,33,33,33,30,33,29,33,34,33,33,33,30,33,33,33,34,32,32,33,33,33,34,32,32,33,33,33,33,32,34,33,33,33,34,32,35,33,33,33,33,32,35,33,33,33,34,32,35,33,33,33,33,32,35,33,33,33,34,32,36,33,33,33,33,32,36,33,33,33,34,32,35,33,33,33,33,32,36,33,33,33,34,32,35,33,33,33,33,32,34,33,33,33,33,32,33,33,33,33,33,33,32,33,33,33,32,33,33,33,33,33,32,32,32,33,33,33,32,33,32,up
