AccX1,AccY1,AccZ1,GyrX1,GyrY1,GyrZ1,AccX2,AccY2,AccZ2,GyrX2,GyrY2,GyrZ2,AccX3,AccY3,AccZ3,GyrX3,GyrY3,GyrZ3,AccX4,AccY4,AccZ4,GyrX4,GyrY4,GyrZ4,AccX5,AccY5,AccZ5,GyrX5,GyrY5,GyrZ5,AccX6,AccY6,AccZ6,GyrX6,GyrY6,GyrZ6,AccX7,AccY7,AccZ7,GyrX7,GyrY7,GyrZ7,AccX8,AccY8,AccZ8,GyrX8,GyrY8,GyrZ8,AccX9,AccY9,AccZ9,GyrX9,GyrY9,GyrZ9,AccX10,AccY10,AccZ10,GyrX10,GyrY10,GyrZ10,AccX11,AccY11,AccZ11,GyrX11,GyrY11,GyrZ11,AccX12,AccY12,AccZ12,GyrX12,GyrY12,GyrZ12,AccX13,AccY13,AccZ13,GyrX13,GyrY13,GyrZ13,AccX14,AccY14,AccZ14,GyrX14,GyrY14,GyrZ14,AccX15,AccY15,AccZ15,GyrX15,GyrY15,GyrZ15,AccX16,AccY16,AccZ16,GyrX16,GyrY16,GyrZ16,AccX17,AccY17,AccZ17,GyrX17,GyrY17,GyrZ17,AccX18,AccY18,AccZ18,GyrX18,GyrY18,GyrZ18,AccX19,AccY19,AccZ19,GyrX19,GyrY19,GyrZ19,AccX20,AccY20,AccZ20,GyrX20,GyrY20,GyrZ20,AccX21,AccY21,AccZ21,GyrX21,GyrY21,GyrZ21,AccX22,AccY22,AccZ22,GyrX22,GyrY22,GyrZ22,AccX23,AccY23,AccZ23,GyrX23,GyrY23,GyrZ23,AccX24,AccY24,AccZ24,GyrX24,GyrY24,GyrZ24,AccX25,AccY25,AccZ25,GyrX25,GyrY25,GyrZ25,AccX26,AccY26,AccZ26,GyrX26,GyrY26,GyrZ26,AccX27,AccY27,AccZ27,GyrX27,GyrY27,GyrZ27,AccX28,AccY28,AccZ28,GyrX28,GyrY28,GyrZ28,AccX29,AccY29,AccZ29,GyrX29,GyrY29,GyrZ29,AccX30,AccY30,AccZ30,GyrX30,GyrY30,GyrZ30,Label
59,60,59,100,54,46,59,58,59,95,54,46,58,58,59,83,58,51,58,57,59,62,59,58,58,58,59,61,59,59,58,57,59,51,59,58,58,58,59,44,60,60,59,58,59,41,58,66,58,59,58,48,58,61,58,59,58,46,59,62,58,59,58,49,59,61,58,59,58,53,58,58,58,59,58,57,58,59,58,59,58,64,58,59,58,59,58,67,58,56,58,58,58,66,58,56,58,58,58,63,58,57,58,58,58,62,58,57,58,58,58,60,58,58,58,58,58,60,58,58,58,58,58,59,58,58,58,58,58,59,58,58,58,58,58,58,58,58,58,58,58,58,58,58,58,58,58,58,58,58,58,58,58,58,58,59,58,58,58,58,58,58,58,58,58,58,58,58,58,58,58,58,58,58,58,58,58,58,58,59,tilt left
46,45,46,100,48,31,46,45,47,50,47,46,46,45,47,49,46,46,46,46,47,47,46,46,46,46,46,46,46,40,46,46,46,34,46,52,46,46,46,41,46,48,46,46,46,38,46,48,46,46,46,39,47,48,46,47,46,41,47,48,46,47,46,40,47,48,46,47,46,46,46,47,46,47,46,53,46,44,46,46,46,53,46,44,46,46,46,52,46,45,46,46,46,53,46,44,46,46,46,50,46,44,46,46,46,46,46,46,46,46,46,46,46,46,46,46,46,46,46,47,46,46,46,47,46,46,46,46,46,46,46,46,46,46,46,46,46,46,46,46,46,46,46,46,46,46,46,46,46,46,46,46,46,46,46,46,46,46,46,46,46,46,46,46,46,46,46,46,46,46,46,46,46,46,46,46,46,46,46,46,tilt left
47,46,48,100,49,34,48,47,48,50,48,48,48,47,48,49,48,48,48,47,48,47,48,48,48,47,48,47,48,42,48,48,48,34,47,54,48,48,48,43,48,50,48,48,48,42,48,49,48,48,48,44,48,49,48,48,48,45,48,49,48,48,48,48,48,48,48,48,48,50,48,47,48,48,48,52,47,46,48,48,48,51,47,47,48,48,48,51,47,46,48,48,48,51,47,47,48,48,48,50,48,47,48,48,48,49,48,48,48,48,48,49,48,47,48,48,48,48,48,48,48,48,48,48,48,48,48,48,48,48,48,48,48,48,48,48,48,48,48,48,48,48,48,48,48,48,48,48,48,48,48,48,48,48,48,48,48,48,48,48,48,48,48,48,48,48,48,48,48,48,48,48,48,48,48,48,48,48,48,48,tilt left
47,46,48,96,49,34,48,47,48,48,48,47,48,47,48,48,48,48,48,47,48,47,48,48,48,47,48,46,48,43,48,48,48,34,48,54,48,48,48,41,48,50,48,48,48,42,48,49,48,48,48,45,48,48,48,48,48,47,48,48,48,48,48,51,48,47,48,48,48,53,47,46,48,48,48,53,47,45,48,48,48,51,47,46,48,48,48,50,48,47,48,48,48,50,48,47,48,48,48,48,48,48,48,48,48,48,48,47,48,48,48,48,48,48,48,48,48,48,48,48,48,48,48,47,48,48,48,48,48,48,48,48,48,48,48,47,48,48,48,48,48,48,48,48,48,48,48,48,48,48,48,48,48,48,48,48,48,48,48,48,48,48,48,48,48,48,48,48,48,48,48,48,48,48,48,48,48,48,48,48,tilt left
48,46,49,50,48,48,48,47,48,47,48,48,48,47,48,46,48,48,48,47,48,43,48,49,48,47,48,42,48,50,48,48,48,42,48,49,48,48,48,44,48,49,48,48,48,46,48,49,48,48,48,49,48,48,48,48,48,52,47,47,48,48,48,52,47,46,48,48,48,52,47,46,48,48,48,51,47,47,48,48,48,50,48,47,48,48,48,49,48,47,48,48,48,48,48,47,48,48,48,48,48,47,48,48,48,48,48,48,48,48,48,48,48,48,48,48,48,48,48,48,48,48,48,48,48,48,48,48,48,48,48,48,48,48,48,48,48,48,48,48,48,48,48,48,48,48,48,48,48,48,48,48,48,48,48,48,48,48,48,48,48,48,48,48,48,48,48,48,48,48,48,48,48,48,48,48,48,48,48,48,tilt left
50,51,50,71,47,42,50,50,50,85,45,38,49,49,50,67,51,46,50,49,50,50,50,50,50,49,50,50,50,51,50,49,50,45,50,45,50,49,50,35,51,55,50,50,50,37,49,55,50,50,50,43,50,51,50,50,49,42,50,52,50,50,49,44,50,51,50,50,49,47,50,50,50,50,49,51,50,50,50,50,49,54,49,49,50,50,49,57,49,47,50,50,49,56,49,47,50,50,50,53,49,48,50,50,50,51,50,49,50,50,50,51,50,49,50,50,50,50,50,50,50,50,50,50,50,50,50,50,50,50,50,50,50,50,50,49,50,50,50,50,50,50,50,50,50,50,50,49,50,50,50,50,50,50,50,50,50,50,50,50,50,50,50,50,50,50,50,49,50,50,50,50,50,50,50,50,50,50,50,50,tilt left
51,51,51,70,48,44,50,51,51,85,46,39,50,50,50,67,51,46,50,50,51,50,50,50,50,50,51,51,50,52,50,50,50,46,51,46,50,50,50,35,52,55,50,50,51,35,50,57,50,50,50,43,51,53,50,51,50,43,51,52,50,51,50,47,51,51,50,51,50,51,50,50,50,51,50,55,50,50,50,50,50,57,50,49,50,50,50,57,50,48,50,50,50,54,50,49,50,50,50,51,50,50,50,50,50,51,50,50,50,50,50,51,50,50,50,50,50,50,50,51,50,50,50,50,50,50,50,50,50,50,50,50,50,50,50,50,50,50,50,50,50,50,50,50,50,50,50,50,50,50,50,50,50,50,50,50,50,50,50,50,50,50,50,50,50,50,50,50,50,50,50,50,50,50,50,50,50,50,50,50,tilt left
50,47,50,71,52,45,51,50,51,52,50,50,50,50,51,50,50,50,50,50,51,50,50,50,50,50,51,48,50,49,50,51,51,41,50,54,50,50,50,44,51,52,50,51,50,46,51,52,50,51,50,46,51,51,50,51,50,48,51,52,50,51,50,53,50,50,50,50,50,56,50,49,50,50,50,55,50,49,50,50,50,55,50,49,50,50,50,54,50,49,50,50,50,52,50,49,50,50,50,51,50,50,50,50,50,50,50,50,50,50,50,50,50,50,50,50,50,50,50,50,50,50,50,50,50,50,50,50,50,50,50,50,50,50,50,50,50,50,50,50,50,50,50,50,50,50,50,50,50,50,50,50,50,50,50,50,50,50,50,50,50,50,50,50,50,50,50,50,50,50,50,50,50,50,50,50,50,50,50,50,tilt left
55,56,56,73,54,50,55,55,55,85,52,46,55,55,55,73,56,51,55,55,55,55,55,55,55,55,55,56,55,57,55,55,55,51,56,53,55,55,55,43,57,58,55,55,55,41,55,61,55,55,55,51,56,57,55,55,55,50,56,57,55,55,55,51,55,56,55,56,55,54,55,56,55,56,55,57,55,55,55,55,55,59,55,54,55,55,55,60,55,54,55,55,55,59,55,54,55,55,55,58,55,54,55,55,55,56,55,55,55,55,55,56,55,55,55,55,55,56,55,55,55,55,55,56,55,55,55,55,55,55,55,55,55,55,55,55,55,55,55,55,55,55,55,55,55,55,55,55,55,55,55,55,55,55,55,55,55,55,55,55,55,55,55,55,55,55,55,55,55,55,55,55,55,55,55,55,55,55,55,55,tilt left
60,60,60,96,54,49,59,59,60,90,57,50,59,58,59,60,59,59,59,59,60,60,59,59,59,59,60,59,59,59,59,59,59,51,60,57,59,59,59,44,61,67,59,60,60,54,60,62,59,60,59,55,60,61,59,60,59,57,60,60,59,60,59,58,59,60,59,60,59,62,59,59,59,60,59,64,59,58,59,59,59,64,59,58,59,59,59,63,59,58,59,59,59,62,59,59,59,59,59,60,59,59,59,59,59,60,59,59,59,59,59,59,59,60,59,59,59,59,59,59,59,59,59,59,59,59,59,59,59,59,59,59,59,59,59,59,59,59,59,59,59,59,59,59,59,59,59,59,59,59,59,59,59,59,59,59,59,59,59,59,59,59,59,59,59,59,59,59,59,59,59,59,59,59,59,59,59,59,59,59,tilt left
52,52,52,100,45,36,51,51,51,74,52,46,51,51,52,51,51,51,51,51,52,52,51,51,51,51,52,51,51,48,51,51,51,41,53,54,51,51,52,39,51,57,51,51,51,46,52,53,51,52,51,47,52,53,51,52,51,49,52,51,51,52,51,52,51,52,51,52,51,55,51,51,51,51,51,57,51,50,51,51,51,56,51,49,51,51,51,54,51,50,51,51,51,52,51,51,51,51,51,52,51,51,51,51,51,52,51,51,51,51,51,51,51,51,51,51,51,51,51,51,51,51,51,51,51,51,51,51,51,51,51,51,51,51,51,51,51,51,51,51,51,51,51,51,51,51,51,51,51,51,51,51,51,51,51,51,51,51,51,51,51,51,51,51,51,51,51,51,51,51,51,51,51,51,51,51,51,51,51,51,tilt left
52,52,52,83,48,43,51,51,52,72,49,44,51,51,51,59,52,49,51,51,52,52,51,51,51,51,52,51,51,51,51,51,51,45,52,50,51,51,51,41,52,55,51,52,52,43,51,55,51,52,51,47,52,53,51,52,51,47,52,52,51,52,51,49,52,52,51,52,51,52,51,52,51,52,51,55,51,51,51,51,51,56,51,50,51,51,51,56,51,50,51,51,51,54,51,50,51,51,51,52,51,51,51,51,51,52,51,51,51,51,51,52,51,51,51,51,51,51,51,51,51,51,51,52,51,51,51,51,51,51,51,51,51,51,51,51,51,51,51,51,51,51,51,51,51,51,51,51,51,51,51,51,51,51,51,52,51,51,51,51,51,51,51,51,51,51,51,51,51,51,51,51,51,51,51,51,51,51,51,51,tilt left
52,52,52,88,47,40,51,51,52,76,50,44,51,51,52,52,51,51,51,51,52,52,51,51,51,51,52,51,51,50,51,51,51,44,52,51,51,51,51,39,52,58,51,52,51,47,52,53,51,52,51,47,52,53,51,52,51,48,52,52,51,52,51,50,51,52,51,52,51,53,51,52,51,52,51,55,51,50,51,51,51,56,51,50,51,51,51,55,51,50,51,51,51,54,51,50,51,51,51,53,51,51,51,51,51,52,51,51,51,51,51,52,51,51,51,51,51,51,51,51,51,51,51,51,51,51,51,51,51,51,51,51,51,51,51,51,51,51,51,51,51,51,51,51,51,51,51,51,51,51,51,51,51,51,51,51,51,51,51,51,51,51,51,51,51,51,51,51,51,51,51,51,51,51,51,51,51,52,51,51,tilt left
52,51,52,64,50,47,51,51,52,62,50,48,51,51,52,59,52,50,51,51,52,53,52,51,51,51,52,52,52,51,51,51,51,49,52,52,51,51,51,47,52,52,51,51,51,46,51,53,51,51,51,47,51,52,51,51,51,47,51,53,51,52,51,48,52,52,51,52,51,48,52,52,51,52,51,48,52,52,51,52,51,51,51,52,51,52,51,53,51,51,51,52,51,54,51,50,51,51,51,54,51,51,51,51,51,55,51,50,51,51,51,54,51,50,51,51,51,53,51,51,51,51,51,52,51,51,51,51,51,52,51,51,51,51,51,51,51,51,51,51,51,51,51,51,51,51,51,51,51,51,51,51,51,51,51,51,51,51,51,51,51,51,51,51,51,51,51,51,51,51,51,51,51,51,51,51,51,51,51,51,tilt left
52,51,52,84,49,41,51,51,51,60,52,50,51,51,52,52,52,51,51,51,52,51,51,51,51,51,52,51,51,48,51,51,51,43,52,55,51,52,52,45,51,54,51,52,51,48,52,52,51,52,51,49,52,52,51,52,51,49,52,52,51,52,51,52,51,52,51,52,51,53,51,51,51,51,51,54,51,50,51,51,51,54,51,51,51,51,51,54,51,50,51,51,51,53,51,51,51,51,51,53,51,51,51,51,51,52,51,51,51,51,51,52,51,51,51,51,51,51,51,51,51,51,51,52,51,51,51,51,51,51,51,51,51,51,51,51,51,51,51,51,51,51,51,51,51,51,51,51,51,51,51,51,51,51,51,51,51,51,51,51,51,51,51,51,51,51,51,51,51,51,51,51,51,51,51,51,51,51,51,51,tilt left
51,50,52,69,53,46,52,51,52,53,52,51,51,51,52,51,51,51,51,51,52,51,51,51,51,51,52,50,51,50,51,51,51,45,51,54,51,51,51,47,52,53,51,52,51,48,52,52,51,52,51,50,51,52,51,52,51,50,51,52,51,52,51,53,51,52,51,52,51,54,51,50,51,51,51,54,51,50,51,51,51,53,51,51,51,51,51,53,51,51,51,51,51,53,51,51,51,51,51,52,51,51,51,51,51,52,51,51,51,51,51,52,51,51,51,51,51,52,51,51,51,51,51,51,51,51,51,51,51,52,51,51,51,51,51,51,51,51,51,51,51,51,51,51,51,51,51,51,51,51,51,51,51,51,51,51,51,51,51,51,51,51,51,51,51,52,51,51,51,51,51,51,51,51,51,51,51,51,51,51,tilt left
51,51,52,85,52,42,51,51,52,53,52,51,51,51,52,52,51,51,51,51,52,51,51,51,51,51,52,50,51,48,51,51,51,41,52,56,51,52,51,47,52,53,51,52,51,48,52,52,51,52,51,49,52,52,51,52,51,51,51,52,51,52,51,53,51,51,51,51,51,54,51,51,51,51,51,55,51,50,51,51,51,54,51,50,51,51,51,53,51,51,51,51,51,53,51,51,51,51,51,52,51,51,51,51,51,52,51,51,51,51,51,52,51,51,51,51,51,51,51,51,51,51,51,51,51,51,51,51,51,51,51,51,51,51,51,51,51,51,51,51,51,51,51,51,51,51,51,51,51,51,51,51,51,51,51,51,51,51,51,51,51,51,51,51,51,51,51,51,51,51,51,51,51,51,51,51,51,51,51,51,tilt left
51,51,52,84,50,41,51,51,52,57,52,50,51,51,52,52,52,51,51,51,52,51,51,51,51,51,52,50,51,48,51,51,51,41,52,56,51,52,51,46,52,54,51,52,51,48,52,52,51,52,51,49,52,52,51,52,51,51,51,52,51,52,51,54,51,51,51,51,51,55,51,50,51,51,51,54,51,50,51,51,51,54,51,50,51,51,51,53,51,51,51,51,51,52,51,51,51,51,51,52,51,51,51,51,51,52,51,51,51,51,51,52,51,51,51,51,51,51,51,51,51,51,51,51,51,51,51,51,51,51,51,52,51,51,51,51,51,51,51,51,51,51,51,51,51,51,51,51,51,51,51,51,51,51,51,52,51,51,51,51,51,51,51,51,51,51,51,51,51,51,51,51,51,51,51,51,51,51,51,51,tilt left
51,51,52,83,50,42,51,51,52,55,52,50,51,51,52,52,51,51,51,51,52,51,51,52,51,51,52,49,51,49,51,51,51,41,52,56,51,52,51,46,51,53,51,52,51,47,52,52,51,52,51,49,51,52,51,52,51,51,51,52,51,52,51,54,51,50,51,51,51,55,51,50,51,51,51,55,51,50,51,51,51,54,51,51,51,51,51,53,51,51,51,51,51,52,51,51,51,51,51,52,51,51,51,51,51,52,51,51,51,51,51,51,51,52,51,51,51,52,51,51,51,51,51,51,51,52,51,51,51,52,51,51,51,51,51,51,51,52,51,51,51,51,51,51,51,51,51,51,51,51,51,51,51,51,51,51,51,51,51,51,51,51,51,51,51,51,51,51,51,51,51,51,51,51,51,51,51,51,51,51,tilt left
51,49,51,77,53,47,52,51,52,52,52,52,51,51,52,51,52,51,51,51,52,50,52,51,51,51,52,48,52,50,51,52,52,42,51,55,51,52,51,47,52,53,51,52,51,48,52,52,51,52,51,49,51,52,51,52,51,53,51,51,51,52,51,55,51,51,51,51,51,56,51,50,51,51,51,55,51,50,51,51,51,54,51,50,51,51,51,53,51,51,51,51,51,52,51,51,51,51,51,52,51,51,51,51,51,51,51,51,51,51,51,52,51,51,51,51,51,51,51,52,51,51,51,51,51,51,51,51,51,51,51,51,51,51,51,51,51,51,51,51,51,51,51,51,51,51,51,51,51,51,51,51,51,51,51,51,51,51,51,51,51,51,51,51,51,51,51,51,51,51,51,52,51,51,51,52,51,57,51,50,tilt left
51,51,51,65,49,46,51,51,51,54,53,51,51,51,52,44,52,54,51,51,52,45,52,53,51,51,51,46,52,51,51,51,51,41,53,54,51,51,51,41,52,56,51,52,51,47,52,53,51,52,51,48,52,52,51,52,51,49,52,52,51,52,51,52,51,52,51,52,51,54,51,50,51,51,51,54,51,50,51,51,51,54,51,51,51,51,51,54,51,50,51,51,51,53,51,51,51,51,51,52,51,51,51,51,51,52,51,51,51,51,51,51,51,51,51,51,51,52,51,51,51,51,51,51,51,51,51,51,51,51,51,51,51,51,51,51,51,51,51,51,51,51,51,51,51,51,51,51,51,51,51,51,51,51,51,51,51,51,51,51,51,51,51,51,51,51,51,51,51,51,51,51,51,51,51,51,51,51,51,51,tilt left
52,49,52,52,51,51,52,51,52,52,51,51,51,51,52,50,51,51,51,51,52,49,51,52,51,51,52,48,52,52,51,52,51,48,52,53,51,52,51,48,52,52,51,52,51,49,52,52,51,52,51,51,51,52,51,52,51,54,51,51,51,51,51,55,51,50,51,51,51,55,51,50,51,51,51,55,51,51,51,51,51,53,51,51,51,51,51,52,51,51,51,51,51,52,51,51,51,51,51,51,51,51,51,51,51,51,51,51,51,51,51,51,51,51,51,51,51,51,51,51,51,51,51,51,51,51,51,51,51,51,51,51,51,51,51,51,51,51,51,51,51,51,51,51,51,51,51,51,51,51,51,51,51,51,51,51,51,51,51,51,51,51,51,51,51,51,51,51,51,51,51,51,51,51,51,51,51,51,51,51,tilt left
52,52,52,67,50,46,51,51,52,69,49,45,51,51,52,62,51,48,51,51,52,54,52,51,51,51,52,52,51,52,51,51,51,48,52,51,51,51,51,42,52,53,51,51,51,42,52,55,51,52,51,46,52,53,51,52,51,47,52,52,51,52,51,49,52,52,51,52,51,52,51,52,51,52,51,54,51,50,51,51,51,55,51,51,51,51,51,55,51,50,51,51,51,54,51,50,51,51,51,53,51,51,51,51,51,52,51,51,51,51,51,52,51,51,51,51,51,51,51,51,51,51,51,51,51,51,51,51,51,51,51,51,51,51,51,51,51,51,51,51,51,51,51,52,51,51,51,51,51,51,51,51,51,51,51,51,51,51,51,51,51,51,51,51,51,51,51,51,51,51,51,51,51,51,51,51,51,51,51,51,tilt left
52,52,52,84,46,40,51,51,52,73,52,46,51,51,52,51,51,51,51,51,52,52,51,51,51,51,52,51,51,49,51,51,51,42,53,52,51,51,51,39,51,57,51,52,51,49,52,52,51,52,51,48,52,52,51,52,51,50,51,52,51,52,51,53,51,52,51,52,51,54,51,50,51,51,51,54,51,50,51,51,51,54,51,50,51,51,51,54,51,51,51,51,51,53,51,51,51,51,51,52,51,51,51,51,51,52,51,51,51,51,51,51,51,51,51,51,51,51,51,51,51,51,51,51,51,51,51,51,51,51,51,51,51,51,51,51,51,51,51,51,51,51,51,51,51,51,51,51,51,51,51,51,51,51,51,51,51,51,51,51,51,51,51,51,51,51,51,51,51,51,51,51,51,51,51,51,51,51,51,52,tilt left
52,52,52,66,50,46,51,52,52,73,49,44,51,51,51,63,52,48,51,51,52,52,51,51,51,51,52,51,51,52,51,51,51,47,52,50,51,51,51,40,53,54,51,51,52,40,51,56,51,52,51,48,52,52,51,52,51,49,52,52,51,52,51,51,51,52,51,52,51,53,51,51,51,52,51,55,51,50,51,51,51,54,51,50,51,51,51,54,51,50,51,51,51,53,51,51,51,51,51,52,51,51,51,51,51,52,51,51,51,51,51,52,51,51,51,51,51,51,51,51,51,51,51,51,51,51,51,51,51,51,51,51,51,51,51,51,51,51,51,51,51,51,51,51,51,51,51,51,51,51,51,51,51,51,51,51,51,51,51,51,51,51,51,51,51,51,51,51,51,51,51,51,51,51,51,51,51,51,51,51,tilt left
52,52,52,75,48,44,51,51,51,71,49,45,51,51,51,57,52,50,51,51,52,52,51,51,51,51,52,51,51,51,51,51,51,46,52,50,51,51,51,41,52,56,51,52,52,45,51,54,51,52,51,48,52,52,51,52,51,49,52,52,51,52,51,50,51,52,51,52,51,53,51,51,51,52,51,54,51,51,51,51,51,54,51,50,51,51,51,54,51,50,51,51,51,53,51,51,51,51,51,53,51,51,51,51,51,52,51,51,51,51,51,52,51,51,51,51,51,52,51,51,51,51,51,51,51,51,51,51,51,51,51,51,51,51,51,51,51,51,51,51,51,51,51,51,51,51,51,51,51,52,51,51,51,51,51,51,51,51,51,51,51,51,51,51,51,51,51,51,51,51,51,51,51,51,51,51,51,51,51,51,tilt left
52,52,52,85,47,41,51,51,51,73,50,45,51,51,51,53,51,51,51,51,52,52,51,51,51,51,52,51,51,50,51,51,51,43,52,51,51,51,51,40,52,57,51,52,51,47,52,53,51,52,51,48,52,52,51,52,51,49,51,52,51,52,51,51,51,52,51,52,51,54,51,51,51,51,51,55,51,50,51,51,51,54,51,50,51,51,51,54,51,51,51,51,51,53,51,51,51,51,51,52,51,51,51,51,51,52,51,51,51,51,51,51,51,51,51,51,51,51,51,51,51,51,51,52,51,51,51,51,51,51,51,51,51,51,51,51,51,51,51,51,51,51,51,51,51,51,51,51,51,51,51,51,51,51,51,52,51,51,51,51,51,51,51,51,51,51,51,52,51,51,51,51,51,51,51,51,51,51,51,52,tilt left
52,52,52,67,49,46,51,51,51,67,50,46,51,51,51,59,51,49,51,51,51,54,51,51,51,51,52,52,51,52,51,51,51,48,52,50,51,51,51,44,52,54,51,51,51,44,52,54,51,52,51,45,52,53,51,52,51,48,52,52,51,52,51,49,52,52,51,52,51,51,51,52,51,52,51,54,51,51,51,51,51,55,51,50,51,51,51,54,51,50,51,51,51,54,51,50,51,51,51,53,51,51,51,51,51,52,51,51,51,51,51,52,51,51,51,51,51,51,51,51,51,51,51,51,51,51,51,51,51,51,51,51,51,51,51,51,51,51,51,51,51,51,51,51,51,51,51,51,51,51,51,51,51,51,51,51,51,51,51,51,51,51,51,51,51,51,51,51,51,51,51,51,51,51,51,51,51,51,51,51,tilt left
51,51,52,78,52,43,51,51,52,53,52,51,51,51,52,52,51,51,51,51,52,51,51,52,51,51,52,49,52,49,51,51,51,43,52,55,51,52,51,48,52,53,51,52,51,48,52,52,51,52,51,50,51,52,51,52,51,52,51,51,51,52,51,54,51,51,51,51,51,54,51,50,51,51,51,54,51,50,51,51,51,53,51,51,51,51,51,53,51,51,51,51,51,52,51,51,51,51,51,52,51,51,51,51,51,51,51,51,51,51,51,51,51,51,51,51,51,51,51,51,51,51,51,51,51,51,51,51,51,51,51,51,51,51,51,51,51,51,51,51,51,51,51,51,51,51,51,51,51,51,51,51,51,51,51,51,51,51,51,51,51,51,51,51,51,51,51,51,51,51,51,51,51,51,51,51,51,51,51,51,tilt left
52,52,52,73,48,44,51,51,52,72,49,45,51,51,51,55,52,51,51,51,52,52,51,51,51,51,52,51,51,51,51,51,51,46,52,50,51,51,51,40,52,57,51,52,52,46,51,54,51,52,51,48,52,52,51,52,51,49,52,52,51,52,51,50,51,52,51,52,51,53,51,51,51,51,51,54,51,50,51,51,51,54,51,50,51,51,51,54,51,50,51,51,51,54,51,51,51,51,51,53,51,51,51,51,51,52,51,51,51,51,51,52,51,51,51,51,51,51,51,51,51,51,51,51,51,51,51,51,51,51,51,52,51,51,51,51,51,51,51,51,51,51,51,52,51,51,51,52,51,51,51,51,51,51,51,51,51,51,51,51,51,51,51,51,51,51,51,51,51,51,51,51,51,51,51,51,51,51,51,51,tilt left
51,51,52,80,52,43,51,51,52,52,51,51,51,51,52,51,51,52,51,51,52,50,51,52,51,51,52,49,52,49,51,51,51,42,52,56,51,52,51,48,52,52,51,52,51,49,52,52,51,52,51,51,51,52,51,52,51,53,51,51,51,52,51,54,51,50,51,51,51,54,51,50,51,51,51,54,51,50,51,51,51,53,51,51,51,51,51,53,51,51,51,51,51,52,51,51,51,51,51,52,51,51,51,51,51,51,51,51,51,51,51,51,51,51,51,51,51,51,51,51,51,51,51,51,51,51,51,51,51,51,51,51,51,51,51,51,51,51,51,51,51,51,51,51,51,51,51,51,51,51,51,51,51,51,51,51,51,51,51,51,51,51,51,51,51,52,51,51,51,51,51,57,51,50,51,51,51,56,51,50,tilt left
51,51,51,43,56,56,51,51,52,39,53,56,51,51,51,42,53,54,51,51,51,42,52,54,51,51,51,43,52,54,51,52,51,45,51,54,51,52,51,48,52,52,51,52,51,49,52,52,51,52,51,52,51,52,51,52,51,53,51,50,51,51,51,54,51,51,51,51,51,54,51,51,51,51,51,54,51,51,51,51,51,53,51,51,51,51,51,52,51,51,51,51,51,52,51,51,51,51,51,51,51,51,51,51,51,51,51,51,51,51,51,51,51,51,51,51,51,51,51,51,51,51,51,51,51,51,51,51,51,51,51,51,51,51,51,51,51,51,51,51,51,51,51,51,51,51,51,51,51,51,51,51,51,51,51,51,51,51,51,51,51,52,51,51,51,51,51,51,51,51,51,51,51,51,51,51,51,51,51,51,tilt left
51,51,52,79,51,43,51,51,52,52,51,51,51,51,52,52,51,51,51,51,52,50,51,52,51,51,52,49,52,49,51,51,51,43,52,55,51,52,51,48,52,52,51,52,51,48,52,52,51,52,51,51,51,52,51,52,51,53,51,51,51,51,51,54,51,51,51,51,51,54,51,50,51,51,51,54,51,51,51,51,51,53,51,51,51,51,51,52,51,51,51,51,51,52,51,51,51,51,51,52,51,51,51,51,51,51,51,51,51,51,51,51,51,51,51,51,51,51,51,51,51,51,51,51,51,51,51,51,51,51,51,51,51,51,51,51,51,51,51,51,51,51,51,51,51,51,51,51,51,51,51,51,51,51,51,51,51,51,51,51,51,51,51,51,51,51,51,51,51,51,51,51,51,51,51,51,51,51,51,51,tilt left
51,51,52,77,51,44,51,51,52,53,51,51,51,51,52,51,51,51,51,51,52,49,51,52,51,51,52,48,52,50,51,51,51,43,52,55,51,52,51,48,52,52,51,52,51,49,52,52,51,52,51,52,51,52,51,52,51,54,51,51,51,51,51,54,51,50,51,51,51,54,51,51,51,51,51,54,51,50,51,51,51,53,51,51,51,51,51,52,51,51,51,51,51,52,51,51,51,51,51,52,51,51,51,51,51,51,51,51,51,51,51,51,51,51,51,51,51,51,51,52,51,51,51,51,51,51,51,51,51,51,51,51,51,51,51,51,51,51,51,51,51,51,51,51,51,51,51,51,51,51,51,51,51,51,51,51,51,51,51,51,51,51,51,51,51,51,51,51,51,51,51,51,51,51,51,51,51,51,51,51,tilt left
52,52,52,83,48,41,51,51,51,71,50,45,51,51,51,55,52,50,51,51,52,52,51,51,51,51,52,51,51,50,51,51,51,44,52,52,51,51,51,41,52,56,51,52,51,46,51,54,51,52,51,48,52,52,51,52,51,48,52,52,51,52,51,50,52,52,51,52,51,52,51,51,51,52,51,54,51,50,51,51,51,54,51,51,51,51,51,54,51,50,51,51,51,54,51,50,51,51,51,53,51,51,51,51,51,52,51,51,51,51,51,52,51,51,51,51,51,51,51,51,51,51,51,52,51,51,51,51,51,51,51,51,51,51,51,51,51,51,51,51,51,51,51,51,51,51,51,51,51,51,51,51,51,51,51,51,51,51,51,51,51,51,51,51,51,51,51,51,51,51,51,51,51,51,51,51,51,51,51,51,tilt left
51,51,51,86,52,42,51,51,52,51,51,51,51,51,52,51,51,51,51,51,52,50,51,52,51,51,52,48,52,49,51,51,51,41,52,56,51,52,51,49,52,52,51,52,51,49,52,52,51,52,51,51,51,52,51,52,51,53,51,51,51,51,51,54,51,50,51,51,51,54,51,50,51,51,51,53,51,51,51,51,51,53,51,51,51,51,51,53,51,51,51,51,51,52,51,51,51,51,51,52,51,51,51,51,51,52,51,51,51,51,51,51,51,51,51,51,51,51,51,51,51,51,51,51,51,51,51,51,51,51,51,51,51,51,51,51,51,51,51,51,51,51,51,51,51,51,51,51,51,51,51,51,51,51,51,51,51,51,51,51,51,51,51,51,51,51,51,51,51,51,51,51,51,51,51,51,51,51,51,51,tilt left
52,52,52,89,46,39,51,51,51,71,50,46,51,51,52,53,51,51,51,51,52,52,51,51,51,51,52,51,51,49,51,51,51,42,52,53,51,51,51,40,52,56,51,52,51,47,52,53,51,52,51,48,52,52,51,52,51,49,52,52,51,52,51,52,51,52,51,52,51,54,51,51,51,51,51,55,51,50,51,51,51,55,51,50,51,51,51,54,51,50,51,51,51,53,51,51,51,51,51,52,51,51,51,51,51,52,51,51,51,51,51,51,51,51,51,51,51,51,51,51,51,51,51,51,51,51,51,51,51,51,51,51,51,51,51,51,51,52,51,51,51,51,51,51,51,51,51,51,51,51,51,51,51,51,51,51,51,51,51,51,51,51,51,51,51,51,51,51,51,51,51,51,51,51,51,51,51,51,51,51,tilt left
52,52,52,88,46,40,51,51,51,74,50,45,51,51,51,51,51,51,51,51,52,51,51,51,51,51,52,51,51,50,51,51,51,43,52,51,51,51,51,40,52,57,51,52,52,48,52,53,51,52,51,48,52,52,51,52,51,49,52,52,51,52,51,49,52,52,51,52,51,52,51,51,51,52,51,53,51,51,51,51,51,54,51,51,51,51,51,54,51,51,51,51,51,54,51,50,51,51,51,53,51,51,51,51,51,52,51,51,51,51,51,52,51,51,51,51,51,51,51,51,51,51,51,51,51,51,51,51,51,51,51,51,51,51,51,51,51,51,51,51,51,51,51,51,51,51,51,51,51,51,51,51,51,51,51,51,51,51,51,52,51,51,51,51,51,51,51,51,51,51,51,51,51,51,51,51,51,51,51,51,tilt left
52,51,52,67,50,46,51,51,52,59,51,49,51,51,52,58,52,50,51,51,52,52,52,51,51,51,52,52,51,50,51,51,51,48,52,52,51,51,51,47,52,52,51,51,51,45,51,54,51,52,51,49,51,52,51,52,51,49,52,52,51,52,51,50,52,52,51,52,51,51,52,53,51,52,51,52,51,51,51,51,51,52,51,51,51,51,51,52,51,51,51,51,51,52,51,51,51,51,51,53,51,51,51,51,51,53,51,51,51,51,51,53,51,51,51,51,51,53,51,51,51,51,51,52,51,51,51,51,51,52,51,51,51,51,51,52,51,51,51,51,51,52,51,51,51,51,51,51,51,51,51,51,51,51,51,51,51,51,51,51,51,51,51,51,51,52,51,51,51,51,51,52,51,51,51,51,51,51,51,51,tilt left
51,51,52,65,50,47,51,51,52,57,51,50,51,51,52,57,51,50,51,51,52,55,52,51,51,51,52,52,51,50,51,51,51,49,52,53,51,51,51,49,52,51,51,51,51,47,52,53,51,51,51,47,51,53,51,51,51,49,51,52,51,52,51,49,51,52,51,52,51,50,52,52,51,52,51,50,51,52,51,52,51,51,52,52,51,52,51,52,51,52,51,52,51,52,51,51,51,51,51,52,51,51,51,51,51,52,51,51,51,51,51,53,51,51,51,51,51,53,51,51,51,51,51,53,51,51,51,51,51,52,51,51,51,51,51,52,51,51,51,51,51,52,51,51,51,51,51,52,51,51,51,51,51,51,51,51,51,51,51,51,51,51,51,51,51,51,51,51,51,51,51,51,51,51,51,51,51,52,51,51,tilt left
51,51,52,73,49,44,51,51,52,61,52,49,51,51,52,53,52,51,51,51,52,52,51,51,51,51,52,51,51,49,51,51,51,46,52,53,51,51,51,46,51,53,51,51,51,48,51,52,51,51,51,49,51,52,51,52,51,49,52,52,51,52,51,50,52,52,51,52,51,51,52,52,51,52,51,51,52,52,51,52,51,52,51,51,51,51,51,52,51,51,51,51,51,52,51,51,51,51,51,52,51,51,51,51,51,52,51,51,51,51,51,52,51,51,51,51,51,52,51,51,51,51,51,52,51,51,51,51,51,52,51,51,51,51,51,52,51,51,51,51,51,52,51,51,51,51,51,52,51,51,51,51,51,51,51,51,51,51,51,51,51,51,51,51,51,51,51,51,51,51,51,51,51,51,51,51,51,51,51,51,tilt left
51,51,52,82,51,42,51,51,52,54,52,51,51,51,52,52,51,51,51,51,52,51,51,51,51,51,52,51,51,48,51,51,51,44,51,55,51,51,51,48,51,53,51,51,51,49,51,52,51,52,51,50,52,52,51,52,51,50,52,52,51,52,51,51,52,52,51,52,51,51,51,52,51,52,51,52,51,51,51,51,51,52,51,51,51,51,51,52,51,51,51,51,51,53,51,51,51,51,51,53,51,51,51,51,51,53,51,51,51,51,51,52,51,51,51,51,51,52,51,51,51,51,51,52,51,51,51,51,51,52,51,51,51,51,51,52,51,51,51,51,51,52,51,51,51,51,51,52,51,51,51,51,51,51,51,51,51,51,51,51,51,51,51,51,51,51,51,51,51,51,51,51,51,51,51,51,51,51,51,51,tilt left
52,51,52,69,49,45,51,51,52,64,51,48,51,51,52,54,52,51,51,51,52,52,51,51,51,51,52,51,51,51,51,51,51,47,52,51,51,51,51,44,52,54,51,51,51,47,51,53,51,52,51,48,51,52,51,52,51,49,52,52,51,52,51,50,52,52,51,52,51,51,52,52,51,52,51,53,51,51,51,52,51,53,51,50,51,51,51,53,51,51,51,51,51,53,51,51,51,51,51,54,51,50,51,51,51,53,51,51,51,51,51,52,51,51,51,51,51,52,51,51,51,51,51,52,51,51,51,51,51,52,51,51,51,51,51,51,51,52,51,51,51,51,51,51,51,51,51,51,51,51,51,51,51,51,51,51,51,51,51,51,51,51,51,51,51,51,51,51,51,51,51,51,51,51,51,51,51,51,51,51,tilt left
52,52,52,70,49,46,51,51,52,64,50,47,51,51,52,62,50,48,51,51,51,57,52,50,51,51,52,52,51,51,51,51,51,48,52,52,51,51,52,46,52,52,51,51,51,43,52,54,51,51,51,44,51,54,51,51,51,47,52,53,51,52,51,48,52,52,51,52,51,48,52,52,51,52,51,51,51,52,51,52,51,53,51,51,51,52,51,54,51,51,51,51,51,55,51,51,51,51,51,55,51,50,51,51,51,53,51,51,51,51,51,53,51,51,51,51,51,52,51,51,51,51,51,52,51,51,51,51,51,52,51,51,51,51,51,52,51,51,51,51,51,51,51,51,51,51,51,51,51,51,51,51,51,51,51,51,51,51,51,51,51,51,51,51,51,51,51,51,51,51,51,51,51,51,51,51,51,51,51,51,tilt left
51,51,52,85,48,41,51,50,52,57,51,50,51,51,52,52,51,51,51,51,52,51,51,52,51,51,52,50,51,48,51,51,51,42,52,55,51,52,51,46,52,53,51,52,51,48,52,52,51,52,51,49,52,52,51,52,51,50,52,52,51,52,51,51,51,52,51,52,51,53,51,51,51,51,51,53,51,51,51,51,51,54,51,51,51,51,51,54,51,51,51,51,51,54,51,51,51,51,51,53,51,51,51,51,51,52,51,51,51,51,51,52,51,51,51,51,51,52,51,51,51,51,51,52,51,51,51,51,51,51,51,51,51,51,51,52,51,51,51,51,51,51,51,52,51,51,51,52,51,51,51,51,51,51,51,52,51,51,51,51,51,51,51,51,51,51,51,51,51,51,51,51,51,51,51,51,51,51,51,51,tilt left
51,51,52,92,47,38,51,50,51,57,51,50,51,51,52,52,51,51,51,51,52,50,51,52,51,51,52,49,52,48,51,51,51,40,52,56,51,52,52,46,52,54,51,52,51,48,52,52,51,52,51,50,52,52,51,52,51,51,51,51,51,52,51,53,51,51,51,51,51,53,51,51,51,51,51,54,51,51,51,51,51,53,51,51,51,51,51,53,51,51,51,51,51,53,51,51,51,51,51,52,51,51,51,51,51,52,51,51,51,51,51,52,51,51,51,51,51,52,51,51,51,51,51,52,51,51,51,51,51,51,51,51,51,51,51,51,51,51,51,51,51,51,51,51,51,51,51,51,51,51,51,51,51,51,51,51,51,51,51,51,51,51,51,51,51,51,51,51,51,51,51,51,51,51,51,51,51,51,51,51,tilt left
52,51,52,82,48,41,51,51,52,62,52,48,51,51,52,52,52,51,51,51,52,51,51,51,51,51,52,51,51,49,51,51,51,43,52,54,51,51,51,44,51,55,51,52,51,48,51,53,51,52,51,48,52,52,51,52,51,49,52,52,51,52,51,51,51,52,51,52,51,53,51,51,51,52,51,53,51,51,51,51,51,54,51,51,51,51,51,54,51,50,51,51,51,53,51,51,51,51,51,53,51,51,51,51,51,52,51,51,51,51,51,52,51,51,51,51,51,52,51,51,51,51,51,51,51,51,51,51,51,51,51,51,51,51,51,51,51,51,51,51,51,51,51,51,51,51,51,51,51,51,51,51,51,51,51,51,51,51,51,51,51,51,51,51,51,51,51,51,51,51,51,51,51,51,51,51,51,51,51,51,tilt left
51,51,52,77,48,43,51,51,52,61,51,49,51,51,52,52,51,51,51,51,52,52,51,51,51,51,52,51,51,49,51,51,51,45,52,53,51,51,51,44,52,54,51,52,51,48,52,52,51,52,51,48,52,52,51,52,51,49,52,52,51,52,51,51,51,52,51,52,51,54,51,51,51,51,51,53,51,51,51,51,51,53,51,51,51,51,51,53,51,51,51,51,51,53,51,51,51,51,51,52,51,51,51,51,51,52,51,51,51,51,51,52,51,51,51,51,51,52,51,51,51,51,51,52,51,51,51,51,51,51,51,51,51,51,51,51,51,51,51,51,51,51,51,51,51,51,51,51,51,51,51,51,51,51,51,51,51,51,51,51,51,51,51,51,51,51,51,51,51,51,51,51,51,51,51,51,51,51,51,51,tilt left
51,51,52,85,48,40,51,51,52,61,52,49,51,51,52,52,51,51,51,51,52,51,51,51,51,51,52,50,51,48,51,51,51,42,52,55,51,52,51,44,52,54,51,52,51,48,52,52,51,52,51,49,52,52,51,52,51,50,52,52,51,52,51,53,51,51,51,52,51,53,51,51,51,51,51,54,51,51,51,51,51,54,51,51,51,51,51,53,51,50,51,51,51,53,51,51,51,51,51,52,51,51,51,51,51,52,51,51,51,51,51,52,51,51,51,51,51,52,51,51,51,51,51,52,51,51,51,51,51,52,51,51,51,51,51,51,51,51,51,51,51,51,51,51,51,51,51,51,51,52,51,51,51,51,51,51,51,51,51,51,51,51,51,51,51,51,51,51,51,51,51,51,51,52,51,51,51,51,51,51,tilt left
52,51,52,81,47,41,51,51,52,65,51,47,51,51,52,52,51,51,51,51,52,52,51,51,51,51,52,51,51,49,51,51,51,44,52,53,51,51,51,42,52,56,51,52,51,48,52,53,51,52,51,48,52,52,51,52,51,49,52,52,51,52,51,51,51,52,51,52,51,53,51,50,51,51,51,53,51,51,51,51,51,54,51,51,51,51,51,54,51,51,51,51,51,54,51,51,51,51,51,53,51,51,51,51,51,52,51,51,51,51,51,52,51,51,51,51,51,52,51,51,51,51,51,51,51,51,51,51,51,51,51,51,51,51,51,52,51,51,51,51,51,51,51,51,51,51,51,51,51,51,51,51,51,51,51,52,51,51,51,51,51,51,51,51,51,51,51,52,51,51,51,51,51,51,51,51,51,51,51,52,tilt left
51,51,52,83,49,42,51,51,52,54,51,51,51,51,52,52,51,51,51,51,52,51,51,51,51,51,52,51,51,48,51,51,51,43,52,56,51,52,51,47,52,53,51,52,51,48,52,53,51,52,51,49,52,52,51,52,51,49,52,52,51,52,51,52,51,51,51,52,51,53,51,51,51,51,51,53,51,51,51,51,51,54,51,51,51,51,51,54,51,50,51,51,51,53,51,51,51,51,51,53,51,51,51,51,51,52,51,51,51,51,51,52,51,51,51,51,51,52,51,51,51,51,51,51,51,51,51,51,51,51,51,51,51,51,51,51,51,51,51,51,51,51,51,51,51,51,51,51,51,51,51,51,51,51,51,51,51,51,51,51,51,51,51,51,51,51,51,51,51,51,51,51,51,51,51,51,51,51,51,51,tilt left
51,50,51,81,52,44,52,51,52,52,51,51,51,51,52,51,51,51,51,51,52,51,51,51,51,51,52,50,51,49,51,51,52,42,51,55,51,51,51,48,52,52,51,52,51,48,52,52,51,52,51,48,52,52,51,52,51,50,52,52,51,52,51,53,51,51,51,52,51,53,51,51,51,52,51,54,51,51,51,51,51,55,51,50,51,51,51,54,51,51,51,51,51,53,51,51,51,51,51,53,51,51,51,51,51,52,51,51,51,51,51,52,51,51,51,51,51,52,51,51,51,51,51,51,51,51,51,51,51,51,51,51,51,51,51,51,51,51,51,51,51,51,51,51,51,51,51,51,51,51,51,51,51,51,51,51,51,51,51,51,51,51,51,51,51,51,51,51,51,51,51,51,51,51,51,51,51,51,51,51,tilt left
52,51,52,84,47,39,51,51,52,70,51,46,51,51,52,52,52,51,51,51,52,52,51,51,51,51,52,51,51,49,51,51,51,43,52,52,51,51,51,41,52,57,51,52,51,48,52,53,51,52,51,48,52,52,51,52,51,49,52,52,51,52,51,51,52,52,51,52,51,53,51,51,51,51,51,53,51,51,51,51,51,53,51,51,51,51,51,54,51,51,51,51,51,53,51,51,51,51,51,53,51,51,51,51,51,52,51,51,51,51,51,52,51,51,51,51,51,52,51,51,51,51,51,52,51,51,51,51,51,51,51,52,51,51,51,52,51,51,51,51,51,51,51,51,51,51,51,51,51,51,51,51,51,51,51,51,51,51,51,51,51,51,51,51,51,51,51,51,51,51,51,51,51,51,51,51,51,51,51,51,tilt left
52,51,52,84,46,40,51,51,52,69,51,46,51,51,52,51,51,51,51,51,52,51,51,51,51,51,52,50,51,49,51,51,51,42,53,53,51,51,51,41,52,56,51,52,51,48,52,52,51,52,51,48,52,52,51,52,51,50,52,52,51,52,51,52,51,51,51,52,51,53,51,51,51,51,51,54,51,51,51,51,51,55,51,50,51,51,51,55,51,50,51,51,51,53,51,51,51,51,51,52,51,51,51,51,51,52,51,51,51,51,51,51,51,51,51,51,51,51,51,51,51,51,51,51,51,51,51,51,51,51,51,51,51,51,51,51,51,51,51,51,51,51,51,51,51,51,51,51,51,51,51,51,51,51,51,51,51,51,51,51,51,51,51,51,51,51,51,51,51,51,51,51,51,51,51,51,51,51,51,51,tilt left
52,52,52,67,50,47,51,51,52,70,49,46,51,51,52,66,50,47,51,51,51,52,51,51,51,51,52,52,51,52,51,51,52,47,52,52,51,51,52,42,52,51,51,51,51,41,52,57,51,52,52,47,52,53,51,52,51,48,52,53,51,52,51,48,52,52,51,52,51,50,52,52,51,52,51,51,51,51,51,52,51,54,51,51,51,51,51,55,51,51,51,51,51,55,51,50,51,51,51,54,51,51,51,51,51,54,51,50,51,51,51,52,51,51,51,51,51,52,51,51,51,51,51,51,51,51,51,51,51,51,51,51,51,51,51,51,51,51,51,51,51,51,51,51,51,51,51,51,51,51,51,51,51,51,51,51,51,51,51,51,51,51,51,51,51,51,51,51,51,51,51,51,51,51,51,51,51,51,51,51,tilt left
52,52,52,70,50,46,51,51,52,69,50,46,51,51,52,64,50,47,51,51,51,55,52,50,51,51,52,52,51,51,51,51,52,47,52,52,51,51,51,43,52,52,51,51,51,40,52,56,51,52,51,45,52,54,51,52,51,47,52,53,51,52,51,47,52,52,51,52,51,50,51,52,51,52,51,53,51,51,51,52,51,54,51,51,51,51,51,55,51,50,51,51,51,56,51,50,51,51,51,54,51,50,51,51,51,53,51,51,51,51,51,52,51,51,51,51,51,52,51,51,51,51,51,51,51,51,51,51,51,51,51,51,51,51,51,51,51,52,51,51,51,51,51,51,51,51,51,51,51,51,51,51,51,51,51,51,51,51,51,51,51,51,51,51,51,52,51,51,51,51,51,51,51,51,51,51,51,51,51,51,tilt left
52,52,52,97,44,35,51,51,51,70,52,46,51,51,52,51,51,51,51,51,52,51,51,51,51,51,52,51,51,47,51,51,51,41,53,54,51,51,52,40,52,57,51,51,51,47,52,53,51,52,51,46,52,53,51,52,51,49,52,52,51,52,51,52,51,51,51,52,51,54,51,51,51,52,51,56,51,51,51,51,51,57,51,49,51,51,51,55,51,50,51,51,51,53,51,51,51,51,51,52,51,51,51,51,51,52,51,51,51,51,51,52,51,51,51,51,51,51,51,52,51,51,51,51,51,51,51,51,51,51,51,52,51,51,51,51,51,51,51,51,51,51,51,52,51,51,51,52,51,51,51,51,51,51,51,51,51,51,51,51,51,51,51,51,51,51,51,51,51,51,51,51,51,51,51,51,51,51,51,51,tilt left
52,52,52,71,49,45,52,51,52,73,48,44,51,51,51,61,51,49,51,51,52,52,51,51,51,51,52,52,51,52,51,51,51,47,52,50,51,51,51,40,53,55,51,51,51,42,52,56,51,52,51,47,52,53,51,52,51,47,52,52,51,52,51,49,52,52,51,52,51,51,51,52,51,52,51,54,51,51,51,51,51,56,51,50,51,51,51,55,51,50,51,51,51,54,51,50,51,51,51,54,51,51,51,51,51,53,51,51,51,51,51,52,51,51,51,51,51,51,51,51,51,51,51,51,51,51,51,51,51,51,51,52,51,51,51,51,51,51,51,51,51,51,51,52,51,51,51,51,51,51,51,51,51,51,51,52,51,51,51,51,51,51,51,51,51,51,51,51,51,51,51,51,51,51,51,51,51,51,51,51,tilt left
51,51,52,93,50,39,51,50,52,51,51,51,51,51,52,51,51,51,51,51,52,50,51,52,51,51,52,49,52,47,51,51,51,40,52,57,51,52,51,47,52,53,51,52,51,47,52,53,51,52,51,49,52,52,51,52,51,53,51,51,51,52,51,54,51,51,51,51,51,56,51,50,51,51,51,56,51,50,51,51,51,54,51,50,51,51,51,53,51,51,51,51,51,52,51,51,51,51,51,51,51,51,51,51,51,51,51,51,51,51,51,51,51,51,51,51,51,51,51,51,51,51,51,51,51,51,51,51,51,51,51,51,51,51,51,51,51,51,51,51,51,51,51,51,51,51,51,51,51,51,51,51,51,51,51,51,51,51,51,51,51,51,51,51,51,51,51,51,51,51,51,51,51,51,51,51,51,51,51,51,tilt left
52,52,52,68,50,46,51,51,52,66,50,47,51,51,52,63,50,47,51,51,51,56,51,50,51,51,52,52,51,51,51,51,52,48,52,52,51,51,51,43,52,52,51,51,51,41,52,55,51,52,51,43,52,55,51,52,51,47,52,53,51,52,51,48,52,52,51,52,51,52,51,51,51,52,51,54,51,51,51,52,51,55,51,51,51,51,51,56,51,50,51,51,51,55,51,50,51,51,51,53,51,51,51,51,51,52,51,51,51,51,51,52,51,51,51,51,51,51,51,51,51,51,51,52,51,51,51,51,51,51,51,52,51,51,51,52,51,51,51,51,51,51,51,51,51,51,51,51,51,51,51,51,51,51,51,52,51,51,51,51,51,51,51,51,51,51,51,51,51,51,51,51,51,51,51,51,51,51,51,51,tilt left
51,51,52,82,47,41,51,51,52,60,51,49,51,51,52,52,51,51,51,51,52,51,51,52,51,51,52,48,52,49,51,51,51,41,52,55,51,52,51,44,52,55,51,52,51,47,52,52,51,52,51,50,51,52,51,52,51,53,51,51,51,52,51,55,51,51,51,51,51,56,51,50,51,51,51,55,51,50,51,51,51,53,51,51,51,51,51,53,51,51,51,51,51,52,51,51,51,51,51,51,51,51,51,51,51,51,51,51,51,51,51,51,51,51,51,51,51,51,51,52,51,51,51,51,51,51,51,51,51,51,51,51,51,51,51,51,51,51,51,51,51,51,51,51,51,51,51,51,51,51,51,51,51,51,51,51,51,51,51,51,51,51,51,51,51,51,51,51,51,51,51,51,51,51,51,51,51,51,51,51,tilt left
51,51,52,89,49,40,51,50,52,54,52,50,51,51,52,51,51,52,51,51,52,50,52,52,51,51,52,47,52,49,51,51,51,39,52,57,51,52,51,46,52,53,51,52,51,49,52,51,51,52,51,52,51,52,51,52,51,55,51,51,51,51,51,56,51,50,51,51,51,56,51,50,51,51,51,54,51,50,51,51,51,53,51,51,51,51,51,52,51,51,51,51,51,52,51,51,51,51,51,51,51,51,51,51,51,52,51,51,51,51,51,51,51,51,51,51,51,51,51,51,51,51,51,51,51,51,51,51,51,52,51,51,51,51,51,51,51,52,51,51,51,52,51,51,51,51,51,51,51,51,51,51,51,51,51,51,51,51,51,51,51,51,51,51,51,51,51,51,51,51,51,51,51,51,51,51,51,51,51,51,tilt left
51,51,52,91,48,39,51,51,52,56,51,50,51,51,52,52,51,51,51,51,52,51,51,51,51,51,52,50,51,47,51,51,51,40,52,56,51,52,51,45,52,54,51,52,51,47,52,53,51,52,51,49,52,52,51,52,51,51,51,52,51,52,51,54,51,51,51,52,51,55,51,51,51,51,51,55,51,50,51,51,51,54,51,50,51,51,51,53,51,51,51,51,51,52,51,51,51,51,51,52,51,51,51,51,51,52,51,51,51,51,51,51,51,51,51,51,51,51,51,51,51,51,51,51,51,52,51,51,51,52,51,51,51,51,51,51,51,51,51,51,51,52,51,51,51,51,51,51,51,52,51,51,51,51,51,51,51,51,51,51,51,51,51,51,51,51,51,51,51,51,51,51,51,51,51,51,51,51,51,51,tilt left
52,52,52,92,47,40,51,51,52,73,49,45,51,51,51,55,51,50,51,51,52,52,51,51,51,51,52,51,51,50,51,51,52,43,52,51,51,51,51,40,52,56,51,52,51,44,52,54,51,52,51,45,52,53,51,52,51,47,52,52,51,52,51,50,51,51,51,52,51,53,51,51,51,52,51,56,51,51,51,51,51,57,51,49,51,51,51,56,51,50,51,51,51,54,51,51,51,51,51,52,51,51,51,51,51,52,51,51,51,51,51,51,51,51,51,51,51,51,51,51,51,51,51,51,51,51,51,51,51,51,51,51,51,51,51,51,51,51,51,51,51,51,51,51,51,51,51,51,51,51,51,51,51,51,51,51,51,51,51,51,51,51,51,51,51,51,51,51,51,51,51,51,51,51,51,51,51,51,51,51,tilt left
52,52,52,85,49,42,51,51,52,76,49,43,51,51,51,58,51,49,51,51,52,51,51,51,51,51,52,51,51,51,51,51,51,42,52,51,51,51,51,37,53,57,51,52,51,42,52,55,51,52,51,46,52,52,51,52,51,49,51,52,51,52,51,53,51,51,51,52,51,56,51,50,51,51,51,57,51,50,51,51,51,56,51,50,51,51,51,54,51,50,51,51,51,52,51,51,51,51,51,52,51,51,51,51,51,51,51,51,51,51,51,51,51,51,51,51,51,51,51,51,51,51,51,51,51,51,51,51,51,51,51,51,51,51,51,51,51,51,51,51,51,51,51,51,51,51,51,51,51,51,51,51,51,51,51,51,51,51,51,51,51,51,51,51,51,51,51,51,51,51,51,51,51,51,51,51,51,51,51,51,tilt left
51,52,52,66,50,47,51,51,51,70,50,46,51,51,52,65,50,47,51,51,51,55,51,50,51,51,52,51,51,52,51,51,52,48,52,52,51,51,52,42,52,51,51,51,51,39,53,57,51,52,51,43,52,55,51,52,51,47,52,52,51,52,51,49,52,52,51,52,51,53,51,51,51,52,51,55,51,51,51,51,51,57,51,50,51,51,51,56,51,50,51,51,51,54,51,51,51,51,51,52,51,51,51,51,51,52,51,51,51,51,51,51,51,51,51,51,51,51,51,51,51,51,51,51,51,51,51,51,51,51,51,51,51,51,51,51,51,51,51,51,51,51,51,51,51,51,51,51,51,51,51,51,51,51,51,51,51,51,51,51,51,51,51,51,51,51,51,51,51,51,51,51,51,51,51,51,51,51,51,51,tilt left
52,52,52,81,49,42,51,51,52,71,49,44,51,51,52,61,51,48,51,51,52,52,51,51,51,51,52,52,51,51,51,51,52,44,52,52,51,51,51,40,52,55,51,51,51,42,52,56,51,52,51,46,52,53,51,52,51,48,52,52,51,52,51,51,51,52,51,52,51,54,51,51,51,51,51,55,51,51,51,51,51,56,51,50,51,51,51,55,51,50,51,51,51,53,51,51,51,51,51,52,51,51,51,51,51,52,51,51,51,51,51,51,51,51,51,51,51,52,51,51,51,51,51,51,51,52,51,51,51,51,51,51,51,51,51,51,51,51,51,51,51,51,51,51,51,51,51,51,51,51,51,51,51,51,51,51,51,51,51,51,51,51,51,51,51,51,51,51,51,51,51,51,51,51,51,51,51,51,51,51,tilt left
51,52,52,66,50,47,51,52,52,73,49,45,51,51,51,66,51,47,51,51,52,51,51,51,51,51,52,51,51,52,51,51,52,48,52,51,51,51,51,40,53,53,51,51,51,38,52,58,51,52,51,46,52,53,51,52,51,48,52,52,51,52,51,51,51,52,51,52,51,54,51,51,51,52,51,56,51,51,51,51,51,57,51,49,51,51,51,55,51,50,51,51,51,53,51,51,51,51,51,52,51,51,51,51,51,52,51,51,51,51,51,51,51,51,51,51,51,51,51,51,51,51,51,51,51,51,51,51,51,51,51,51,51,51,51,51,51,51,51,51,51,51,51,51,51,51,51,51,51,51,51,51,51,51,51,51,51,51,51,51,51,51,51,51,51,51,51,51,51,51,51,51,51,52,51,51,51,51,51,51,tilt left
52,53,52,88,46,40,51,51,51,76,49,43,51,51,51,53,51,50,51,51,52,51,51,51,51,51,52,51,51,50,51,51,51,42,53,51,51,51,52,38,53,58,51,52,51,45,52,54,51,52,51,47,52,52,51,52,51,49,52,52,51,52,51,52,51,52,51,52,51,54,51,51,51,51,51,56,51,50,51,51,51,55,51,50,51,51,51,54,51,51,51,51,51,53,51,51,51,51,51,52,51,51,51,51,51,52,51,51,51,51,51,51,51,51,51,51,51,51,51,51,51,51,51,51,51,51,51,51,51,51,51,51,51,51,51,51,51,51,51,51,51,51,51,51,51,51,51,51,51,51,51,51,51,51,51,51,51,51,51,51,51,51,51,51,51,51,51,51,51,51,51,51,51,51,51,51,51,51,51,51,tilt left
52,51,52,77,48,42,51,51,52,65,51,47,51,51,52,53,52,51,51,51,52,52,51,51,51,51,52,51,51,49,51,51,51,44,52,53,51,51,51,42,52,56,51,52,51,47,52,53,51,52,51,48,52,52,51,52,51,48,52,53,51,52,51,52,51,52,51,52,51,54,51,50,51,51,51,54,51,50,51,51,51,54,51,51,51,51,51,55,51,50,51,51,51,54,51,51,51,51,51,52,51,51,51,51,51,52,51,51,51,51,51,52,51,51,51,51,51,52,51,51,51,51,51,51,51,51,51,51,51,52,51,51,51,51,51,51,51,51,51,51,51,51,51,51,51,51,51,51,51,51,51,51,51,51,51,51,51,51,51,51,51,51,51,51,51,51,51,51,51,51,51,51,51,51,51,51,51,51,51,51,tilt left
51,51,52,90,49,39,51,50,52,53,52,51,51,51,52,51,51,51,51,51,52,50,52,52,51,51,52,48,52,48,51,51,51,39,52,57,51,52,51,46,52,53,51,52,51,49,52,52,51,52,51,51,51,52,51,52,51,54,51,51,51,52,51,56,51,50,51,51,51,56,51,50,51,51,51,54,51,50,51,51,51,53,51,51,51,51,51,52,51,51,51,51,51,52,51,51,51,51,51,52,51,51,51,51,51,52,51,51,51,51,51,51,51,51,51,51,51,51,51,51,51,51,51,52,51,51,51,51,51,51,51,51,51,51,51,51,51,51,51,51,51,51,51,51,51,51,51,51,51,51,51,51,51,51,51,51,51,51,51,51,51,51,51,51,51,51,51,51,51,51,51,51,51,51,51,51,51,51,51,51,tilt left
51,51,52,90,48,38,51,50,52,55,51,50,51,51,52,52,51,51,51,51,52,50,51,52,51,51,52,48,52,48,51,51,51,40,52,57,51,52,51,46,52,53,51,52,51,48,52,52,51,52,51,50,51,52,51,52,51,53,51,51,51,52,51,54,51,51,51,51,51,54,51,50,51,51,51,54,51,50,51,51,51,54,51,51,51,51,51,53,51,51,51,51,51,53,51,51,51,51,51,52,51,51,51,51,51,51,51,51,51,51,51,51,51,51,51,51,51,51,51,51,51,51,51,51,51,51,51,51,51,51,51,51,51,51,51,51,51,51,51,51,51,51,51,51,51,51,51,51,51,51,51,51,51,51,51,51,51,51,51,51,51,51,51,51,51,51,51,51,51,51,51,51,51,51,51,51,51,51,51,51,tilt left
52,50,53,41,52,54,51,51,52,43,52,54,51,51,52,44,52,54,51,51,52,46,52,53,51,51,51,48,52,52,51,52,51,51,51,51,51,52,51,54,51,51,51,51,51,56,51,50,51,51,51,56,51,50,51,51,51,55,51,50,51,51,51,53,51,51,51,51,51,52,51,51,51,51,51,52,51,51,51,51,51,51,51,51,51,51,51,51,51,51,51,51,51,51,51,52,51,51,51,51,51,51,51,51,51,51,51,51,51,51,51,51,51,51,51,51,51,51,51,51,51,51,51,51,51,51,51,51,51,51,51,51,51,51,51,51,51,51,51,51,51,51,51,51,51,51,51,51,51,51,51,51,51,51,51,51,51,51,51,51,51,51,51,51,51,51,51,51,51,51,51,51,51,51,51,51,51,51,51,51,tilt left
51,52,52,69,50,46,51,51,52,66,50,47,51,51,52,66,50,47,51,51,51,56,52,50,51,51,52,51,51,51,51,51,52,48,52,53,51,51,51,43,52,51,51,51,51,39,53,57,51,52,51,44,52,55,51,52,51,48,52,52,51,52,51,49,52,52,51,52,51,52,51,52,51,52,51,54,51,51,51,51,51,55,51,50,51,51,51,55,51,50,51,51,51,54,51,51,51,51,51,53,51,51,51,51,51,53,51,51,51,51,51,52,51,51,51,51,51,52,51,51,51,51,51,51,51,51,51,51,51,51,51,51,51,51,51,51,51,51,51,51,51,51,51,51,51,51,51,51,51,51,51,51,51,51,51,51,51,51,51,51,51,51,51,51,51,51,51,51,51,51,51,51,51,51,51,51,51,51,51,51,tilt left
52,51,52,90,47,38,51,51,52,60,52,49,51,51,52,52,51,51,51,51,52,51,51,51,51,51,52,49,52,48,51,51,51,40,53,56,51,52,51,43,52,55,51,52,51,47,52,52,51,52,51,49,52,52,51,52,51,52,51,52,51,52,51,54,51,51,51,51,51,55,51,50,51,51,51,55,51,50,51,51,51,54,51,50,51,51,51,53,51,51,51,51,51,53,51,51,51,51,51,52,51,51,51,51,51,52,51,51,51,51,51,51,51,51,51,51,51,51,51,51,51,51,51,51,51,52,51,51,51,51,51,51,51,51,51,51,51,51,51,51,51,51,51,51,51,51,51,51,51,51,51,51,51,51,51,51,51,51,51,51,51,51,51,51,51,51,51,51,51,51,51,51,51,51,51,51,51,51,51,51,tilt left
51,51,52,85,47,40,51,51,52,58,51,49,51,51,52,52,51,51,51,51,52,51,51,52,51,51,52,49,52,49,51,51,51,40,53,56,51,52,51,44,52,54,51,52,51,47,52,52,51,52,51,49,52,52,51,52,51,53,51,51,51,52,51,55,51,51,51,51,51,55,51,50,51,51,51,55,51,50,51,51,51,54,51,51,51,51,51,53,51,51,51,51,51,52,51,51,51,51,51,52,51,51,51,51,51,52,51,51,51,51,51,51,51,51,51,51,51,51,51,51,51,51,51,51,51,51,51,51,51,51,51,51,51,51,51,51,51,52,51,51,51,51,51,51,51,51,51,51,51,51,51,51,51,51,51,51,51,51,51,51,51,51,51,51,51,51,51,51,51,51,51,51,51,51,51,51,51,51,51,51,tilt right
51,51,52,88,48,39,51,50,52,53,51,51,51,51,52,52,51,51,51,51,52,50,51,52,51,51,52,49,52,48,51,51,51,41,52,57,51,52,51,48,52,53,51,52,51,48,52,52,51,52,51,51,52,52,51,52,51,53,51,51,51,51,51,52,51,51,51,52,51,52,51,51,51,51,51,54,51,50,51,51,51,53,51,50,51,51,51,52,51,51,51,51,51,53,51,51,51,51,51,52,51,51,51,51,51,52,51,51,51,51,51,51,51,51,51,51,51,52,51,51,51,51,51,52,51,51,51,51,51,52,51,51,51,51,51,51,51,51,51,51,51,52,51,51,51,51,51,51,51,51,51,51,51,51,51,51,51,51,51,52,51,51,51,51,51,51,51,51,51,51,51,52,51,51,51,51,51,51,51,51,tilt right
51,51,51,49,50,52,51,51,51,51,51,51,51,51,51,52,51,51,51,51,51,53,51,51,51,51,51,54,51,51,51,51,51,54,52,51,51,51,51,53,51,51,51,51,51,52,51,51,51,51,51,50,51,52,51,51,51,50,51,52,51,51,51,50,51,51,51,51,51,50,51,52,51,51,51,50,51,52,51,51,51,51,51,51,51,51,51,51,51,51,51,51,51,50,51,52,51,51,51,51,51,52,51,51,51,51,51,51,51,51,51,51,51,51,51,51,51,51,51,51,51,51,51,51,51,51,51,51,51,51,51,51,51,51,51,51,51,51,51,51,51,51,51,51,51,51,51,52,51,51,51,51,51,51,51,51,51,51,51,51,51,51,51,51,51,51,51,51,51,51,51,51,51,51,51,51,51,51,51,51,tilt right
51,52,51,36,52,56,51,51,51,50,51,52,51,51,51,51,51,52,51,51,51,51,51,51,51,51,51,52,51,53,51,51,51,56,51,50,51,51,51,55,51,50,51,51,51,55,51,50,51,51,52,54,51,51,51,51,52,52,51,51,51,51,52,50,52,52,51,51,52,49,52,52,51,51,51,49,52,52,51,51,51,49,52,52,51,51,51,51,51,52,51,51,51,52,51,51,51,51,51,52,51,51,51,51,51,51,51,51,51,51,51,51,51,51,51,51,51,51,51,51,51,51,51,51,51,51,51,51,51,51,51,52,51,51,51,51,51,51,51,51,51,51,51,51,51,51,51,51,51,51,51,51,51,51,51,51,51,51,51,51,51,52,51,51,51,51,51,51,51,51,51,51,51,52,51,51,51,51,51,51,tilt right
51,51,51,34,53,57,51,51,51,34,53,56,51,52,51,50,51,52,51,51,51,51,52,52,51,51,51,52,51,52,51,52,51,55,51,52,51,51,51,60,51,49,51,51,51,55,51,50,51,51,51,55,51,50,51,51,52,54,51,51,51,51,52,52,51,51,51,51,52,50,51,52,51,51,52,50,52,51,51,51,51,48,52,52,51,51,51,49,52,52,51,51,51,50,51,52,51,51,51,51,51,52,51,51,51,51,51,51,51,51,51,51,51,51,51,51,51,51,51,51,51,51,51,51,51,51,51,51,51,51,51,51,51,51,51,52,51,51,51,51,51,51,51,51,51,51,51,51,51,51,51,51,51,51,51,51,51,51,51,51,51,51,51,51,51,51,51,51,51,51,51,51,51,51,51,51,51,51,51,51,tilt right
51,51,51,49,51,53,51,51,51,52,51,51,51,51,51,53,51,51,51,51,51,54,51,51,51,51,51,55,51,51,51,51,51,54,51,50,51,51,52,52,51,51,51,51,52,51,51,51,51,51,52,50,51,51,51,51,51,49,52,52,51,51,51,50,51,52,51,51,51,50,52,52,51,51,51,51,51,52,51,51,51,50,52,52,51,51,51,50,51,52,51,51,51,51,51,52,51,51,51,51,51,52,51,51,51,51,51,51,51,51,51,51,51,51,51,51,51,51,51,51,51,51,51,51,51,51,51,51,51,51,51,51,51,51,51,51,51,51,51,51,51,51,51,51,51,51,51,51,51,51,51,51,51,51,51,51,51,51,51,51,51,51,51,51,51,51,51,51,51,51,51,51,51,51,51,51,51,51,51,51,tilt right
51,51,51,21,55,61,51,52,51,38,53,54,51,51,51,51,51,52,51,51,51,51,51,52,51,51,51,52,51,54,51,51,51,58,51,50,51,51,51,59,51,49,51,51,51,54,51,50,51,51,51,54,51,50,51,51,52,53,51,51,51,51,52,52,51,51,51,51,52,51,51,51,51,51,52,49,52,52,51,51,51,49,51,52,51,51,51,50,51,52,51,51,51,50,51,52,51,51,51,50,51,52,51,51,51,51,51,52,51,51,51,51,51,51,51,51,51,51,51,52,51,51,51,51,51,51,51,51,51,51,51,51,51,51,51,51,51,51,51,51,51,51,51,51,51,51,51,51,51,51,51,51,51,51,51,51,51,51,51,51,51,51,51,51,51,51,51,51,51,51,51,51,51,51,51,51,51,51,51,51,tilt right
51,51,51,24,53,59,51,52,51,42,52,53,51,51,51,51,51,52,51,51,51,51,51,51,51,51,51,52,51,53,51,51,51,58,51,49,51,51,51,58,51,50,51,51,51,56,51,50,51,51,51,54,51,51,51,51,52,51,51,51,51,51,52,49,51,52,51,51,52,49,51,52,51,51,51,47,52,52,51,51,51,49,52,53,51,51,51,51,51,52,51,51,51,52,51,51,51,51,51,52,51,51,51,51,51,52,51,51,51,51,51,52,51,51,51,51,51,51,51,51,51,51,51,51,51,52,51,51,51,51,51,51,51,51,51,51,51,52,51,51,51,51,51,52,51,51,51,51,51,51,51,51,51,51,51,51,51,51,51,51,51,51,51,51,51,51,51,51,51,51,51,51,51,51,51,51,51,51,51,51,tilt right
51,51,51,25,54,59,51,52,51,36,53,54,51,52,51,51,51,52,51,51,51,51,51,51,51,51,51,52,51,53,51,52,51,58,51,50,51,51,51,60,51,49,51,51,51,54,51,50,51,51,51,54,51,50,51,51,52,52,51,51,51,51,52,51,51,51,51,51,52,51,51,51,51,51,52,50,51,52,51,51,51,49,52,52,51,51,51,50,51,52,51,51,51,50,51,51,51,51,51,49,52,52,51,51,51,50,52,52,51,51,51,51,51,51,51,51,51,51,51,51,51,51,51,51,51,52,51,51,51,51,51,51,51,51,51,51,51,51,51,51,51,51,51,51,51,51,51,51,51,51,51,51,51,51,51,51,51,51,51,51,51,51,51,51,51,51,51,51,51,51,51,51,51,51,51,51,51,51,51,51,tilt right
51,51,51,27,54,59,51,52,51,33,53,56,51,52,51,50,51,52,51,51,51,51,51,52,51,51,51,52,51,52,51,51,51,58,51,51,51,51,51,61,51,48,51,51,51,56,51,49,51,51,51,55,51,50,51,51,52,52,51,51,51,51,52,51,51,52,51,51,52,50,51,51,51,51,52,47,52,52,51,51,52,48,52,53,51,51,51,50,52,52,51,51,51,50,52,52,51,51,51,51,51,52,51,51,51,51,51,51,51,51,51,51,51,51,51,51,51,51,51,51,51,51,51,51,51,51,51,51,51,51,51,51,51,51,51,51,51,51,51,51,51,51,51,51,51,51,51,51,51,51,51,51,51,51,51,51,51,51,51,51,51,51,51,51,51,51,51,51,51,51,51,51,51,51,51,51,51,51,51,51,tilt right
51,51,51,25,55,60,51,52,51,32,53,56,51,52,51,50,51,52,51,51,51,51,51,52,51,51,51,52,51,53,51,52,51,58,51,51,51,51,51,61,51,48,51,51,51,55,51,50,51,51,51,54,51,50,51,51,52,53,51,51,51,51,52,52,51,52,51,51,52,51,51,51,51,51,52,50,51,52,51,51,52,50,51,52,51,51,51,50,52,52,51,51,51,50,52,52,51,51,51,50,52,51,51,51,51,50,52,52,51,51,51,51,51,52,51,51,51,51,51,52,51,51,51,51,51,51,51,51,51,51,51,51,51,51,51,51,51,51,51,51,51,51,51,51,51,51,51,51,51,51,51,51,51,51,51,51,51,51,51,51,51,51,51,51,51,51,51,51,51,51,51,51,51,51,51,51,51,51,51,51,tilt right
51,52,51,18,55,61,51,52,51,41,53,54,51,51,51,51,51,52,51,51,51,51,51,51,51,51,51,53,51,54,51,51,51,59,51,49,51,51,51,59,51,49,51,51,51,56,51,50,51,51,51,53,51,51,51,51,52,51,51,52,51,51,52,51,51,51,51,51,52,49,51,51,51,51,52,49,52,52,51,51,51,50,51,52,51,51,51,50,51,52,51,51,51,50,51,52,51,51,51,50,52,51,51,51,51,50,52,52,51,51,51,51,51,52,51,51,51,52,51,51,51,51,51,52,51,51,51,51,51,52,51,51,51,51,51,52,51,51,51,51,51,51,51,51,51,51,51,51,51,51,51,51,51,51,51,51,51,51,51,51,51,51,51,51,51,51,51,51,51,51,51,51,51,51,51,51,51,51,51,51,tilt right
51,52,51,19,55,61,51,52,51,39,52,54,51,52,51,51,51,52,51,51,51,52,51,51,51,51,51,53,51,54,51,51,51,60,51,49,51,51,51,59,51,49,51,51,51,55,51,50,51,51,52,53,51,51,51,51,52,51,51,51,51,51,52,50,51,51,51,51,52,49,51,52,51,51,51,49,52,52,51,51,51,50,51,52,51,51,51,50,51,52,51,51,51,50,51,52,51,51,51,51,51,52,51,51,51,51,51,51,51,51,51,51,51,51,51,51,51,51,51,51,51,51,51,51,51,51,51,51,51,52,51,51,51,51,51,51,51,51,51,51,51,51,51,51,51,51,51,51,51,51,51,51,51,51,51,51,51,51,51,51,51,51,51,51,51,51,51,51,51,51,51,51,51,51,51,51,51,51,51,51,tilt right
51,53,51,32,52,56,51,51,51,51,51,52,51,51,51,52,51,51,51,51,51,53,51,51,51,51,51,53,51,52,51,51,51,57,51,50,51,51,51,54,51,50,51,51,51,54,51,51,51,51,52,52,51,51,51,51,52,50,51,52,51,51,52,50,51,52,51,51,51,49,52,52,51,51,51,49,52,52,51,51,51,50,51,52,51,51,51,51,51,52,51,51,51,51,51,51,51,51,51,51,51,51,51,51,51,51,51,51,51,51,51,51,51,52,51,51,51,51,51,51,51,51,51,51,51,51,51,51,51,51,51,51,51,51,51,51,51,51,51,51,51,51,51,51,51,51,51,51,51,51,51,51,51,51,51,51,51,51,51,51,51,51,51,51,51,51,51,51,51,51,51,51,51,51,51,51,51,51,51,51,tilt right
51,51,51,34,54,57,51,51,51,35,53,56,51,52,51,47,52,52,51,51,51,51,51,52,51,51,51,51,51,52,51,52,51,55,51,52,51,51,51,59,51,49,51,51,51,57,51,50,51,51,51,55,51,50,51,51,51,54,51,51,51,51,52,52,51,51,51,51,52,50,51,52,51,51,52,49,52,52,51,51,51,48,52,52,51,51,51,49,52,52,51,51,51,50,51,52,51,51,51,51,51,52,51,51,51,51,51,51,51,51,51,51,51,51,51,51,51,51,51,51,51,51,51,52,51,51,51,51,51,51,51,51,51,51,51,51,51,51,51,51,51,51,51,51,51,51,51,51,51,51,51,51,51,51,51,51,51,51,51,51,51,51,51,51,51,51,51,51,51,51,51,51,51,51,51,51,51,51,51,51,tilt right
51,52,51,25,54,58,51,52,51,50,51,53,51,51,51,51,51,52,51,51,51,52,51,51,51,51,51,53,51,53,51,51,51,59,51,49,51,51,51,54,51,50,51,51,51,53,51,51,51,51,52,52,51,51,51,51,52,50,51,51,51,51,52,50,52,52,51,51,51,49,52,52,51,51,51,50,51,52,51,51,51,50,51,52,51,51,51,50,51,52,51,51,51,51,51,52,51,51,51,51,51,52,51,51,51,51,51,51,51,51,51,51,51,51,51,51,51,51,51,51,51,51,51,51,51,51,51,51,51,51,51,51,51,51,51,51,51,51,51,51,51,51,51,51,51,51,51,51,51,51,51,51,51,51,51,51,51,51,51,51,51,51,51,51,51,51,51,51,51,51,51,51,51,51,51,51,51,51,51,51,tilt right
51,52,51,27,53,58,51,52,51,49,51,53,51,51,51,51,51,52,51,51,51,52,51,51,51,51,51,53,51,53,51,51,51,58,51,49,51,51,51,55,51,50,51,51,51,55,51,50,51,51,52,53,51,50,51,51,52,50,51,52,51,51,52,49,51,51,51,51,51,48,52,52,51,51,51,48,52,52,51,51,51,49,52,52,51,51,51,50,51,52,51,51,51,52,51,51,51,51,51,51,51,51,51,51,51,51,51,51,51,51,51,51,51,51,51,51,51,51,51,51,51,51,51,51,51,51,51,51,51,51,51,51,51,51,51,51,51,51,51,51,51,52,51,51,51,51,51,51,51,51,51,51,51,51,51,51,51,51,51,51,51,51,51,51,51,51,51,51,51,51,51,51,51,51,51,51,51,51,51,51,tilt right
51,52,51,20,54,59,51,52,51,47,52,53,51,51,51,51,51,52,51,51,51,52,51,51,51,51,51,54,51,53,51,51,51,60,51,48,51,51,51,55,51,50,51,51,51,53,51,51,51,51,52,52,51,51,51,51,52,50,51,51,51,51,52,49,52,52,51,51,51,49,52,52,51,51,51,50,51,52,51,51,51,50,51,52,51,51,51,50,51,52,51,51,51,51,51,52,51,51,51,51,51,51,51,51,51,51,51,51,51,51,51,51,51,51,51,51,51,51,51,51,51,51,51,51,51,51,51,51,51,52,51,51,51,51,51,51,51,51,51,51,51,51,51,51,51,51,51,52,51,51,51,51,51,51,51,51,51,51,51,51,51,51,51,51,51,51,51,51,51,51,51,51,51,51,51,51,51,51,51,51,tilt right
51,52,51,21,54,59,51,52,51,49,51,52,51,51,51,51,51,51,51,51,51,52,51,51,51,51,51,53,51,54,51,51,51,60,51,48,51,51,51,55,51,50,51,51,51,54,51,51,51,51,52,52,51,51,51,51,52,49,52,52,51,51,52,49,52,52,51,51,51,49,52,52,51,51,51,49,52,52,51,51,51,50,51,52,51,51,51,51,51,52,51,51,51,51,51,51,51,51,51,51,51,51,51,51,51,51,51,51,51,51,51,51,51,51,51,51,51,51,51,51,51,51,51,51,51,51,51,51,51,51,51,51,51,51,51,51,51,51,51,51,51,51,51,51,51,51,51,51,51,51,51,51,51,51,51,51,51,51,51,51,51,51,51,51,51,51,51,51,51,51,51,51,51,51,51,51,51,51,51,51,tilt right
51,51,51,28,54,59,51,52,51,37,53,55,51,51,51,50,51,52,51,51,51,51,51,51,51,51,51,52,51,53,51,52,51,58,51,51,51,51,51,59,51,48,51,51,51,55,51,50,51,51,51,54,51,51,51,51,52,53,51,51,51,51,52,51,51,51,51,51,52,50,51,52,51,51,51,49,52,52,51,51,51,49,52,52,51,51,51,49,52,52,51,51,51,50,51,52,51,51,51,51,51,52,51,51,51,51,51,51,51,51,51,51,51,51,51,51,51,51,51,51,51,51,51,51,51,51,51,51,51,51,51,51,51,51,51,51,51,51,51,51,51,51,51,51,51,51,51,51,51,51,51,51,51,51,51,51,51,51,51,51,51,51,51,51,51,51,51,51,51,51,51,51,51,51,51,51,51,51,51,51,tilt right
51,51,51,29,54,59,51,52,51,35,53,56,51,52,51,48,51,52,51,51,51,51,51,52,51,51,51,52,51,53,51,52,51,57,51,51,51,51,51,60,51,48,51,51,51,56,51,50,51,51,51,54,51,50,51,51,52,53,51,51,51,51,52,51,51,51,51,51,52,50,52,52,51,51,52,49,52,52,51,51,51,49,52,52,51,51,51,49,52,52,51,51,51,50,52,52,51,51,51,51,51,52,51,51,51,51,51,52,51,51,51,51,51,51,51,51,51,51,51,51,51,51,51,51,51,51,51,51,51,51,51,51,51,51,51,51,51,51,51,51,51,52,51,51,51,51,51,51,51,51,51,51,51,51,51,51,51,51,51,51,51,51,51,51,51,51,51,51,51,51,51,51,51,51,51,51,51,51,51,51,tilt right
51,52,51,24,54,58,51,52,51,48,52,52,51,51,51,51,51,52,51,51,51,52,51,51,51,51,51,53,51,53,51,51,51,59,51,49,51,51,51,55,51,50,51,51,51,55,51,50,51,51,52,53,51,51,51,51,52,51,51,52,51,51,52,50,51,51,51,51,52,49,52,52,51,51,51,49,52,52,51,51,51,50,51,52,51,51,51,50,51,52,51,51,51,51,51,52,51,51,51,51,51,52,51,51,51,51,51,52,51,51,51,51,51,51,51,51,51,51,51,51,51,51,51,51,51,51,51,51,51,51,51,51,51,51,51,51,51,51,51,51,51,51,51,51,51,51,51,51,51,51,51,51,51,51,51,51,51,51,51,51,51,51,51,51,51,51,51,51,51,51,51,51,51,51,51,51,51,51,51,51,tilt right
51,52,51,20,54,60,51,52,51,46,51,53,51,51,51,51,51,52,51,51,51,52,51,51,51,51,51,54,51,54,51,51,51,60,51,48,51,51,51,55,51,50,51,51,51,53,51,51,51,51,52,52,51,51,51,51,51,50,51,51,51,51,51,49,51,52,51,51,51,49,52,52,51,51,51,50,51,52,51,51,51,50,51,52,51,51,51,50,51,52,51,51,51,51,51,52,51,51,51,52,51,51,51,51,51,52,51,51,51,51,51,51,51,51,51,51,51,51,51,51,51,51,51,51,51,51,51,51,51,51,51,51,51,51,51,51,51,51,51,51,51,51,51,51,51,51,51,51,51,51,51,51,51,51,51,51,51,51,51,51,51,51,51,51,51,51,51,51,51,51,51,51,51,51,51,51,51,51,51,51,tilt right
51,52,51,50,52,54,51,51,51,51,51,52,51,51,51,52,51,51,51,51,51,52,51,51,51,51,51,53,51,52,51,51,51,54,51,50,51,51,51,55,51,50,51,51,51,53,51,51,51,51,52,51,51,51,51,51,52,50,51,52,51,51,51,50,51,51,51,51,51,48,52,52,51,51,51,50,51,52,51,51,51,51,51,52,51,51,51,51,51,51,51,51,51,51,51,51,51,51,51,51,51,52,51,51,51,51,51,52,51,51,51,51,51,51,51,51,51,51,51,52,51,51,51,51,51,51,51,51,51,51,51,52,51,51,51,51,51,51,51,51,51,51,51,51,51,51,51,51,51,51,51,51,51,51,51,51,51,51,51,51,51,51,51,51,51,51,51,51,51,51,51,51,51,51,51,51,51,51,51,52,tilt right
51,52,51,30,53,57,51,52,51,48,51,52,51,51,51,51,51,51,51,51,51,52,51,51,51,51,51,52,51,53,51,51,51,57,51,50,51,51,51,55,51,50,51,51,51,54,51,50,51,51,51,54,51,51,51,51,52,53,51,51,51,51,52,51,51,51,51,51,52,50,51,52,51,51,51,49,52,51,51,51,51,48,52,52,51,51,51,49,52,52,51,51,51,50,51,52,51,51,51,51,51,52,51,51,51,51,51,51,51,51,51,51,51,51,51,51,51,51,51,51,51,51,51,51,51,51,51,51,51,51,51,51,51,51,51,51,51,51,51,51,51,51,51,51,51,51,51,51,51,51,51,51,51,51,51,51,51,51,51,51,51,51,51,51,51,51,51,51,51,51,51,51,51,51,51,51,51,51,51,51,tilt right
51,51,51,33,54,58,51,51,51,36,53,56,51,52,51,49,52,52,51,51,51,51,51,52,51,51,51,52,51,52,51,52,51,56,51,51,51,51,51,59,51,49,51,51,51,55,51,50,51,51,51,54,51,50,51,51,52,53,51,51,51,51,52,52,51,51,51,51,52,51,51,51,51,51,52,50,51,52,51,51,51,49,52,52,51,51,51,49,52,52,51,51,51,50,51,52,51,51,51,50,52,52,51,51,51,51,51,52,51,51,51,51,51,51,51,51,51,51,51,51,51,51,51,51,51,51,51,51,51,51,51,51,51,51,51,51,51,51,51,51,51,51,51,51,51,51,51,51,51,51,51,51,51,51,51,51,51,51,51,51,51,51,51,51,51,51,51,51,51,51,51,51,51,51,51,51,51,51,51,51,tilt right
51,51,51,19,55,62,51,52,51,38,53,54,51,52,51,51,51,52,51,51,51,51,51,51,51,51,51,52,51,54,51,51,51,59,51,49,51,51,51,59,51,49,51,51,51,56,51,50,51,51,51,55,51,51,51,51,52,52,51,51,51,51,52,51,51,52,51,51,52,49,51,51,51,51,52,47,52,53,51,51,51,48,52,53,51,51,51,50,52,52,51,51,51,50,52,52,51,51,51,51,51,52,51,51,51,51,51,52,51,51,51,52,51,51,51,51,51,51,51,51,51,51,51,51,51,51,51,51,51,52,51,51,51,51,51,51,51,51,51,51,51,51,51,51,51,51,51,51,51,51,51,51,51,51,51,51,51,51,51,51,51,51,51,51,51,51,51,51,51,51,51,51,51,51,51,51,51,51,51,51,tilt right
51,51,51,16,55,62,51,52,51,41,52,54,51,51,51,51,51,52,51,51,51,52,51,51,51,51,51,52,51,54,51,51,51,60,50,48,51,51,51,57,51,50,51,51,51,54,51,50,51,51,51,54,51,51,51,51,52,53,51,51,51,51,52,51,51,52,51,51,52,50,51,51,51,51,51,50,51,52,51,51,51,50,52,52,51,51,51,50,52,52,51,51,51,50,51,52,51,51,51,50,52,52,51,51,51,50,52,52,51,51,51,50,51,52,51,51,51,51,51,51,51,51,51,51,51,52,51,51,51,52,51,51,51,51,51,51,51,51,51,51,51,51,51,51,51,51,51,51,51,51,51,51,51,51,51,51,51,51,51,51,51,51,51,51,51,51,51,51,51,51,51,51,51,51,51,51,51,51,51,51,tilt right
51,52,51,9,55,63,51,52,51,45,52,53,51,51,51,50,51,52,51,51,51,52,51,51,51,51,51,52,51,55,51,51,51,61,50,47,51,51,51,56,51,50,51,51,51,55,51,50,51,51,51,53,51,51,51,51,52,52,51,51,51,51,52,51,52,52,51,51,52,50,51,51,51,51,51,49,52,52,51,51,51,50,52,52,51,51,51,50,51,52,51,51,51,51,51,52,51,51,51,51,51,51,51,51,51,51,51,51,51,51,51,51,51,52,51,51,51,51,51,52,51,51,51,51,51,51,51,51,51,51,51,51,51,51,51,51,51,51,51,51,51,51,51,51,51,51,51,51,51,51,51,51,51,51,51,51,51,51,51,51,51,51,51,51,51,51,51,51,51,51,51,51,51,51,51,51,51,51,51,51,tilt right
51,51,51,32,54,58,51,51,51,33,53,56,51,52,51,50,51,52,51,51,51,50,51,52,51,51,51,51,51,52,51,51,51,55,51,52,51,51,51,60,51,48,51,51,51,55,51,50,51,51,51,54,51,50,51,51,51,53,51,51,51,51,51,52,51,51,51,51,52,51,51,51,51,51,51,50,51,52,51,51,51,50,52,52,51,51,51,50,52,52,51,51,51,51,51,52,51,51,51,51,51,51,51,51,51,51,51,51,51,51,51,51,51,52,51,51,51,51,51,51,51,51,51,51,51,51,51,51,51,51,51,51,51,51,51,51,51,52,51,51,51,51,51,51,51,51,51,51,51,51,51,51,51,51,51,51,51,51,51,51,51,51,51,51,51,51,51,51,51,51,51,51,51,51,51,51,51,51,51,51,tilt right
51,51,51,22,54,61,51,52,51,38,52,55,51,52,51,51,51,52,51,51,51,51,51,51,51,51,51,52,51,54,51,51,51,58,51,50,51,51,51,59,51,49,51,51,51,54,51,50,51,51,51,54,51,51,51,51,51,54,51,51,51,51,52,51,52,51,51,51,52,50,52,52,51,51,51,50,52,51,51,51,51,49,52,52,51,51,51,49,52,52,51,51,51,51,51,52,51,51,51,51,51,51,51,51,51,51,51,52,51,51,51,51,51,52,51,51,51,51,51,51,51,51,51,51,51,51,51,51,51,51,51,52,51,51,51,51,51,51,51,51,51,51,51,51,51,51,51,51,51,51,51,51,51,51,51,51,51,51,51,51,51,51,51,51,51,51,51,51,51,51,51,51,51,51,51,51,51,51,51,51,tilt right
51,51,51,35,54,57,51,51,51,32,53,56,51,52,51,49,51,52,51,51,51,51,52,52,51,51,51,52,51,52,51,51,51,55,51,52,51,51,51,60,51,48,51,51,51,54,51,51,51,51,51,54,51,50,51,51,51,54,51,51,51,51,51,53,51,51,51,51,52,51,51,51,51,51,52,50,51,52,51,51,52,50,51,51,51,51,51,48,52,52,51,51,51,50,52,52,51,51,51,50,51,52,51,51,51,51,51,51,51,51,51,51,51,52,51,51,51,51,51,52,51,51,51,51,51,52,51,51,51,51,51,51,51,51,51,51,51,51,51,51,51,51,51,51,51,51,51,51,51,51,51,51,51,51,51,51,51,51,51,51,51,51,51,51,51,51,51,51,51,51,51,51,51,51,51,51,51,51,51,51,tilt right
51,51,51,30,54,58,51,51,51,33,53,55,51,52,51,50,51,52,51,51,51,51,51,52,51,51,51,52,51,52,51,51,51,56,51,52,51,51,51,60,51,48,51,51,51,54,51,51,51,51,51,55,51,50,51,51,51,54,51,51,51,51,51,53,51,51,51,51,52,52,51,52,51,51,52,51,51,51,51,51,51,49,52,52,51,51,51,49,52,52,51,51,51,50,52,52,51,51,51,50,51,52,51,51,51,51,51,52,51,51,51,51,51,51,51,51,51,51,51,51,51,51,51,51,51,51,51,51,51,51,51,51,51,51,51,51,51,51,51,51,51,51,51,51,51,51,51,51,51,51,51,51,51,51,51,51,51,51,51,51,51,51,51,51,51,51,51,52,51,51,51,51,51,51,51,51,51,51,51,51,tilt right
51,51,51,31,54,58,51,51,51,34,53,56,51,52,51,49,51,52,51,51,51,51,51,52,51,51,51,52,51,52,51,52,51,56,51,52,51,51,51,60,51,48,51,51,51,55,51,50,51,51,51,54,51,50,51,51,51,53,51,51,51,51,52,52,51,51,51,51,52,51,51,52,51,51,52,50,51,51,51,51,51,49,52,52,51,51,51,50,52,52,51,51,51,50,52,52,51,51,51,51,51,52,51,51,51,51,51,52,51,51,51,51,51,51,51,51,51,51,51,52,51,51,51,51,51,51,51,51,51,51,51,51,51,51,51,51,51,51,51,51,51,51,51,51,51,51,51,51,51,51,51,51,51,51,51,51,51,51,51,51,51,51,51,51,51,51,51,51,51,51,51,51,51,51,51,51,51,51,51,51,tilt right
51,52,51,34,53,55,51,51,51,49,51,52,51,51,51,51,51,51,51,51,51,52,51,51,51,51,51,53,51,52,51,51,51,57,51,50,51,51,51,55,51,50,51,51,51,54,51,51,51,51,52,53,51,51,51,51,52,51,51,52,51,51,52,50,51,52,51,51,51,49,52,52,51,51,51,49,52,52,51,51,51,49,52,52,51,51,51,50,51,52,51,51,51,51,51,51,51,51,51,51,51,52,51,51,51,51,51,51,51,51,51,51,51,51,51,51,51,51,51,51,51,51,51,51,51,51,51,51,51,51,51,51,51,51,51,51,51,51,51,51,51,51,51,51,51,51,51,51,51,51,51,51,51,51,51,51,51,51,51,51,51,51,51,51,51,51,51,51,51,51,51,51,51,51,51,51,51,51,51,51,tilt right
51,51,51,19,54,60,51,52,51,47,52,53,51,51,51,50,51,52,51,51,51,52,51,51,51,51,51,52,51,54,51,51,51,60,51,48,51,51,51,55,51,50,51,51,51,54,51,50,51,51,51,53,51,51,51,51,52,53,51,51,51,51,52,51,51,51,51,51,52,49,51,52,51,51,51,49,51,52,51,51,51,50,52,52,51,51,51,50,52,52,51,51,51,50,52,52,51,51,51,51,51,52,51,51,51,51,51,51,51,51,51,51,51,52,51,51,51,51,51,52,51,51,51,51,51,51,51,51,51,51,51,51,51,51,51,51,51,51,51,51,51,51,51,51,51,51,51,51,51,51,51,51,51,51,51,51,51,51,51,51,51,51,51,51,51,51,51,51,51,51,51,52,51,51,51,51,51,51,51,51,tilt right
51,51,51,18,55,60,51,52,51,44,52,53,51,51,51,51,51,52,51,51,51,51,51,51,51,51,51,51,51,54,51,51,51,59,51,49,51,51,51,57,51,50,51,51,51,55,51,50,51,51,51,54,51,51,51,51,52,53,51,51,51,51,52,51,51,51,51,51,52,49,52,52,51,51,52,50,51,52,51,51,51,49,52,52,51,51,51,49,52,52,51,51,51,51,51,52,51,51,51,51,51,51,51,51,51,50,52,51,51,51,51,51,51,52,51,51,51,51,51,51,51,51,51,51,51,51,51,51,51,51,51,51,51,51,51,51,51,51,51,51,51,51,51,51,51,51,51,51,51,51,51,51,51,51,51,51,51,51,51,51,51,51,51,51,51,51,51,51,51,51,51,51,51,51,51,51,51,51,51,51,tilt right
51,52,51,23,54,58,51,52,51,49,51,52,51,51,51,51,51,52,51,51,51,52,51,51,51,51,51,54,51,53,51,51,51,60,51,48,51,51,51,54,51,50,51,51,51,54,51,51,51,51,52,53,51,51,51,51,52,50,51,51,51,51,52,50,51,52,51,51,51,50,51,52,51,51,51,49,52,52,51,51,51,50,52,52,51,51,51,50,51,52,51,51,51,50,52,52,51,51,51,51,51,52,51,51,51,51,51,51,51,51,51,51,51,51,51,51,51,51,51,51,51,51,51,51,51,51,51,51,51,51,51,51,51,51,51,51,51,51,51,51,51,51,51,51,51,51,51,51,51,51,51,51,51,51,51,51,51,51,51,51,51,51,51,51,51,51,51,51,51,51,51,51,51,51,51,51,51,51,51,51,tilt right
51,52,51,21,55,59,51,52,51,47,52,52,51,51,51,50,51,52,51,51,51,52,51,51,51,51,51,52,51,54,51,51,51,59,51,49,51,51,51,56,51,50,51,51,51,55,51,50,51,51,52,53,51,51,51,51,52,52,51,51,51,51,52,50,51,51,51,51,52,49,52,52,51,51,51,49,52,52,51,51,51,50,52,52,51,51,51,50,51,52,51,51,51,50,51,52,51,51,51,51,51,52,51,51,51,51,51,51,51,51,51,51,51,51,51,51,51,51,51,51,51,51,51,51,51,51,51,51,51,51,51,51,51,51,51,51,51,51,51,51,51,51,51,51,51,51,51,51,51,51,51,51,51,51,51,51,51,51,51,51,51,51,51,51,51,51,51,51,51,51,51,51,51,51,51,51,51,51,51,51,tilt right
51,52,51,29,53,57,51,52,51,48,52,53,51,51,51,51,51,52,51,51,51,52,51,51,51,51,51,52,51,53,51,51,51,58,51,49,51,51,51,55,51,50,51,51,51,55,51,50,51,51,52,54,51,51,51,51,52,53,51,51,51,51,52,49,51,52,51,51,52,49,51,52,51,51,51,49,52,52,51,51,51,48,52,52,51,51,51,49,52,53,51,51,51,51,51,52,51,51,51,52,51,51,51,51,51,51,51,51,51,51,51,51,51,51,51,51,51,51,51,51,51,51,51,51,51,51,51,51,51,51,51,51,51,51,51,51,51,51,51,51,51,51,51,51,51,51,51,51,51,51,51,51,51,51,51,51,51,51,51,51,51,51,51,51,51,51,51,51,51,51,51,51,51,51,51,51,51,51,51,51,tilt right
51,52,51,20,54,59,51,52,51,47,52,53,51,51,51,50,51,51,51,51,51,51,51,51,51,51,51,52,51,54,51,51,51,59,51,49,51,51,51,55,51,50,51,51,51,54,51,51,51,51,51,54,51,51,51,51,52,53,51,51,51,51,52,51,51,51,51,51,52,50,51,52,51,51,51,49,52,52,51,51,51,49,52,52,51,51,51,50,52,52,51,51,51,50,52,52,51,51,51,51,52,52,51,51,51,51,51,51,51,51,51,51,51,51,51,51,51,51,51,51,51,51,51,51,51,51,51,51,51,51,51,51,51,51,51,51,51,51,51,51,51,51,51,51,51,51,51,51,51,51,51,51,51,51,51,51,51,51,51,51,51,51,51,51,51,51,51,51,51,51,51,51,51,51,51,51,51,51,51,51,tilt right
51,52,51,28,53,56,51,51,51,50,51,52,51,51,51,51,51,51,51,51,51,52,51,51,51,51,51,52,51,53,51,51,51,58,51,50,51,51,51,54,51,50,51,51,51,55,51,50,51,51,52,54,51,51,51,51,52,51,51,51,51,51,52,49,52,52,51,51,52,49,52,51,51,51,51,48,52,52,51,51,51,48,52,53,51,51,51,51,51,52,51,51,51,52,51,51,51,51,51,51,51,51,51,51,51,51,51,52,51,51,51,51,51,51,51,51,51,51,51,51,51,51,51,51,51,51,51,51,51,51,51,51,51,51,51,51,51,51,51,51,51,51,51,51,51,51,51,51,51,51,51,51,51,51,51,51,51,51,51,51,51,51,51,51,51,51,51,51,51,51,51,51,51,51,51,51,51,51,51,51,tilt right
51,52,51,26,54,57,51,52,51,50,51,52,51,51,51,51,51,51,51,51,51,52,51,51,51,51,51,52,51,53,51,51,51,58,51,49,51,51,51,53,51,50,51,51,51,53,51,51,51,51,51,53,51,51,51,51,52,52,51,51,51,51,51,51,51,52,51,51,51,50,51,52,51,51,51,50,51,52,51,51,51,50,52,52,51,51,51,50,52,52,51,51,51,50,51,52,51,51,51,51,51,52,51,51,51,51,51,51,51,51,51,51,51,51,51,51,51,51,51,51,51,51,51,51,51,51,51,51,51,51,51,51,51,51,51,51,51,51,51,51,51,51,51,51,51,51,51,51,51,51,51,51,51,51,51,51,51,51,51,51,51,51,51,51,51,51,51,51,51,51,51,51,51,51,51,51,51,51,51,51,tilt right
51,52,51,38,53,54,51,51,51,50,51,52,51,51,51,51,51,51,51,51,51,52,51,51,51,51,51,52,51,52,51,51,51,56,51,50,51,51,51,53,51,51,51,51,51,53,51,51,51,51,51,53,51,51,51,51,51,51,51,51,51,51,51,50,51,52,51,51,51,51,51,51,51,51,51,51,51,51,51,51,51,50,51,52,51,51,51,50,51,52,51,51,51,51,51,52,51,51,51,50,52,51,51,51,51,50,51,52,51,51,51,51,51,52,51,51,51,51,51,51,51,51,51,51,51,51,51,51,51,51,51,51,51,51,51,51,51,51,51,51,51,51,51,51,51,51,51,51,51,51,51,51,51,51,51,51,51,51,51,51,51,51,51,51,51,51,51,51,51,51,51,51,51,51,51,51,51,51,51,51,tilt right
51,52,51,35,53,55,51,51,51,50,51,52,51,51,51,51,51,51,51,51,51,52,51,51,51,51,51,52,51,53,51,51,51,56,51,50,51,51,51,54,51,51,51,51,51,53,51,51,51,51,51,53,51,52,51,51,51,52,51,51,51,51,51,51,51,51,51,51,51,50,51,51,51,51,51,50,51,52,51,51,51,50,51,52,51,51,51,51,52,51,51,51,51,51,51,52,51,51,51,51,51,52,51,51,51,51,51,51,51,51,51,51,51,51,51,51,51,51,51,52,51,51,51,51,51,51,51,51,51,51,51,51,51,51,51,51,51,51,51,51,51,51,51,51,51,51,51,51,51,51,51,51,51,51,51,51,51,51,51,51,51,51,51,51,51,51,51,51,51,51,51,51,51,51,51,51,51,51,51,51,tilt right
51,52,51,34,54,55,51,51,51,50,52,52,51,51,51,51,51,51,51,51,51,51,51,51,51,51,51,52,51,53,51,51,51,56,51,50,51,51,51,54,51,51,51,51,51,53,51,51,51,51,51,53,51,51,51,51,51,52,51,51,51,51,51,52,51,51,51,51,51,52,51,51,51,51,51,51,51,51,51,51,51,50,51,52,51,51,51,50,52,52,51,51,51,50,52,52,51,51,51,49,52,52,51,51,51,50,52,52,51,51,51,51,51,52,51,51,51,51,51,51,51,51,51,51,51,51,51,51,51,51,51,51,51,51,51,51,51,51,51,51,51,51,51,51,51,51,51,51,51,51,51,51,51,51,51,51,51,51,51,51,51,51,51,51,51,51,51,51,51,51,51,51,51,51,51,51,51,51,51,51,tilt right
51,51,51,37,51,53,51,51,51,50,51,51,51,51,51,51,51,51,51,51,51,52,51,51,51,51,51,52,51,52,51,51,51,56,51,50,51,51,51,54,51,51,51,51,51,53,51,51,51,51,51,53,51,51,51,51,51,52,51,51,51,51,52,51,51,51,51,51,51,50,51,52,51,51,51,50,51,52,51,51,51,50,52,52,51,51,51,50,51,52,51,51,51,50,52,52,51,51,51,51,51,52,51,51,51,51,51,51,51,51,51,51,51,51,51,51,51,51,51,51,51,51,51,51,51,51,51,51,51,51,51,51,51,51,51,51,51,51,51,51,51,51,51,51,51,51,51,51,51,51,51,51,51,51,51,51,51,51,51,51,51,51,51,51,51,51,51,51,51,51,51,51,51,51,51,51,51,51,51,51,tilt right
51,52,51,35,52,56,51,51,51,50,51,52,51,51,51,51,51,51,51,51,51,52,51,51,51,51,51,52,51,53,51,51,51,56,51,50,51,51,51,53,51,51,51,51,51,53,51,51,51,51,51,53,51,51,51,51,51,52,51,51,51,51,52,51,51,51,51,51,51,50,51,52,51,51,51,50,51,51,51,51,51,50,51,52,51,51,51,50,51,52,51,51,51,51,51,52,51,51,51,51,51,52,51,51,51,51,51,51,51,51,51,51,51,51,51,51,51,51,51,51,51,51,51,51,51,51,51,51,51,51,51,51,51,51,51,51,51,51,51,51,51,51,51,51,51,51,51,51,51,51,51,51,51,51,51,51,51,51,51,51,51,51,51,51,51,51,51,51,51,51,51,51,51,51,51,51,51,51,51,51,tilt right
51,51,51,30,54,56,51,52,51,49,51,52,51,51,51,51,51,51,51,51,51,52,51,51,51,51,51,52,51,53,51,51,51,58,51,50,51,51,51,54,51,51,51,51,51,54,51,51,51,51,51,53,51,51,51,51,52,52,51,51,51,51,52,51,51,51,51,51,52,50,51,52,51,51,51,50,51,52,51,51,51,50,52,52,51,51,51,50,52,52,51,51,51,50,51,52,51,51,51,51,51,52,51,51,51,51,51,52,51,51,51,51,51,51,51,51,51,51,51,51,51,51,51,51,51,51,51,51,51,51,51,51,51,51,51,51,51,51,51,51,51,51,51,51,51,51,51,51,51,51,51,51,51,51,51,51,51,51,51,51,51,51,51,51,51,51,51,51,51,51,51,51,51,51,51,51,51,51,51,51,tilt right
51,52,51,39,53,55,51,51,51,46,52,52,51,51,51,51,52,51,51,51,51,51,51,51,51,51,51,52,51,52,51,51,51,56,51,50,51,51,51,55,51,50,51,51,51,54,51,51,51,51,51,53,51,51,51,51,52,52,51,51,51,51,52,51,51,51,51,51,51,50,51,52,51,51,51,50,51,51,51,51,51,50,52,52,51,51,51,50,52,52,51,51,51,50,52,52,51,51,51,51,51,52,51,51,51,51,51,51,51,51,51,51,51,52,51,51,51,51,51,51,51,51,51,51,51,51,51,51,51,51,51,51,51,51,51,51,51,51,51,51,51,51,51,51,51,51,51,51,51,51,51,51,51,51,51,51,51,51,51,51,51,51,51,51,51,51,51,51,51,51,51,51,51,51,51,51,51,51,51,51,tilt right
51,52,51,24,54,58,51,52,51,49,51,52,51,51,51,51,51,51,51,51,51,52,51,51,51,51,51,52,51,54,51,51,51,58,51,49,51,51,51,54,51,51,51,51,51,54,51,51,51,51,51,53,51,51,51,51,52,53,51,51,51,51,51,52,51,51,51,51,51,51,51,51,51,51,51,50,51,52,51,51,51,50,51,51,51,51,51,50,52,52,51,51,51,50,52,52,51,51,51,51,51,52,51,51,51,51,51,51,51,51,51,51,51,51,51,51,51,51,51,51,51,51,51,51,51,52,51,51,51,51,51,51,51,51,51,51,51,51,51,51,51,51,51,51,51,51,51,51,51,51,51,51,51,51,51,51,51,51,51,51,51,51,51,51,51,51,51,51,51,51,51,51,51,51,51,51,51,51,51,51,tilt right
51,52,51,44,51,52,51,51,51,50,51,51,51,51,51,51,51,51,51,51,51,52,51,51,51,51,51,52,51,52,51,51,51,54,51,51,51,51,51,54,51,51,51,51,51,54,51,51,51,51,52,53,51,51,51,51,52,52,51,51,51,51,52,50,51,52,51,51,51,50,51,51,51,51,51,49,52,52,51,51,51,49,52,52,51,51,51,50,51,52,51,51,51,51,51,51,51,51,51,51,51,52,51,51,51,51,51,52,51,51,51,51,51,51,51,51,51,51,51,51,51,51,51,51,51,51,51,51,51,51,51,51,51,51,51,51,51,51,51,51,51,51,51,51,51,51,51,51,51,51,51,51,51,51,51,51,51,51,51,51,51,51,51,51,51,51,51,51,51,51,51,51,51,51,51,51,51,51,51,51,tilt right
51,52,51,38,51,54,51,51,51,50,51,51,51,51,51,51,51,51,51,51,51,52,51,51,51,51,51,52,51,52,51,51,51,56,51,50,51,51,51,54,51,51,51,51,51,54,51,51,51,51,52,54,51,51,51,51,52,52,51,51,51,51,52,50,51,52,51,51,52,49,51,52,51,51,51,49,52,52,51,51,51,49,52,52,51,51,51,49,52,52,51,51,51,51,51,52,51,51,51,51,51,51,51,51,51,51,51,52,51,51,51,51,51,51,51,51,51,51,51,51,51,51,51,51,51,51,51,51,51,51,51,51,51,51,51,51,51,51,51,51,51,51,51,51,51,51,51,51,51,51,51,51,51,51,51,51,51,51,51,51,51,51,51,51,51,51,51,51,51,51,51,51,51,51,51,51,51,51,51,51,tilt right
51,51,51,24,55,60,51,52,51,38,52,55,51,51,51,51,51,52,51,51,51,51,51,51,51,51,51,52,51,53,51,51,51,57,51,50,51,51,51,58,51,49,51,51,51,53,51,51,51,51,51,53,51,51,51,51,51,53,51,51,51,51,51,53,51,51,51,51,51,52,51,51,51,51,51,51,51,51,51,51,51,50,51,51,51,51,51,50,51,52,51,51,51,50,51,52,51,51,51,50,51,52,51,51,51,51,51,52,51,51,51,51,51,51,51,51,51,51,51,51,51,51,51,51,51,51,51,51,51,51,51,52,51,51,51,51,51,51,51,51,51,51,51,51,51,51,51,51,51,51,51,51,51,51,51,52,51,51,51,51,51,51,51,51,51,51,51,51,51,51,51,51,51,51,51,51,51,51,51,51,tilt right
51,52,51,48,52,53,51,51,51,50,51,52,51,51,51,52,51,51,51,51,51,52,51,51,51,51,51,52,51,52,51,51,51,54,51,51,51,51,51,53,51,51,51,51,51,54,51,51,51,51,51,53,51,51,51,51,52,52,51,51,51,51,52,50,51,52,51,51,51,50,51,51,51,51,51,49,52,52,51,51,51,50,51,52,51,51,51,50,51,52,51,51,51,51,51,51,51,51,51,51,51,51,51,51,51,51,51,52,51,51,51,51,51,51,51,51,51,51,51,51,51,51,51,51,51,51,51,51,51,51,51,51,51,51,51,51,51,51,51,51,51,51,51,51,51,51,51,51,51,51,51,51,51,51,51,51,51,51,51,51,51,51,51,51,51,51,51,52,51,51,51,51,51,52,51,51,51,51,52,51,tilt right
51,52,51,38,51,55,51,51,51,52,51,51,51,51,51,52,51,51,51,51,51,52,51,51,51,51,51,52,51,52,51,51,51,55,51,50,51,51,51,53,51,51,51,51,51,53,51,51,51,51,51,54,51,51,51,51,51,53,51,51,51,51,52,52,51,51,51,51,52,50,51,52,51,51,51,49,52,51,51,51,51,49,52,52,51,51,51,49,52,52,51,51,51,50,51,52,51,51,51,51,51,52,51,51,51,51,51,51,51,51,51,51,51,51,51,51,51,51,51,51,51,51,51,51,51,51,51,51,51,51,51,51,51,51,51,51,51,51,51,51,51,51,51,51,51,51,51,51,51,51,51,51,51,51,51,51,51,51,51,51,51,51,51,51,51,51,51,51,51,51,51,51,51,51,51,51,51,51,51,51,tilt right
51,51,51,47,51,53,51,51,51,50,51,52,51,51,51,51,51,51,51,51,51,52,51,51,51,51,51,53,51,51,51,51,51,54,51,51,51,51,51,53,51,51,51,51,51,52,51,51,51,51,51,51,51,51,51,51,51,50,51,52,51,51,51,50,52,52,51,51,51,50,51,52,51,51,51,51,51,52,51,51,51,51,51,52,51,51,51,51,51,51,51,51,51,51,51,51,51,51,51,51,51,51,51,51,51,51,51,51,51,51,51,51,51,51,51,51,51,51,51,51,51,51,51,51,51,51,51,51,51,51,51,51,51,51,51,51,51,52,51,51,51,51,51,51,51,51,51,51,51,51,51,51,51,51,51,51,51,51,51,51,51,51,51,51,51,51,51,51,51,51,51,51,51,51,51,51,51,51,51,51,tilt right
51,51,51,49,51,52,51,51,51,51,51,52,51,51,51,52,52,51,51,51,51,53,51,51,51,51,51,53,51,51,51,51,51,54,51,51,51,51,51,53,51,51,51,51,52,53,51,51,51,51,52,51,51,51,51,51,51,50,51,51,51,51,51,50,52,52,51,51,51,50,51,52,51,51,51,50,52,52,51,51,51,50,52,52,51,51,51,51,51,52,51,51,51,51,51,51,51,51,51,51,51,51,51,51,51,51,51,51,51,51,51,51,51,51,51,51,51,51,51,51,51,51,51,51,51,51,51,51,51,51,51,51,51,51,51,51,51,51,51,51,51,51,51,51,51,51,51,51,51,51,51,51,51,51,51,51,51,51,51,51,51,51,51,51,51,51,51,51,51,51,51,51,51,51,51,51,51,51,51,51,tilt right
51,52,51,48,51,52,51,51,51,51,51,51,51,51,51,52,51,51,51,51,51,52,51,51,51,51,51,53,51,51,51,51,51,54,51,51,51,51,51,53,51,51,51,51,51,52,51,51,51,51,51,51,51,51,51,51,51,50,51,52,51,51,51,50,51,52,51,51,51,50,51,52,51,51,51,51,51,52,51,51,51,51,51,51,51,51,51,51,51,51,51,51,51,51,51,51,51,51,51,51,51,51,51,51,51,51,51,51,51,51,51,51,51,51,51,51,51,51,51,51,51,51,51,51,51,51,51,51,51,51,51,51,51,51,51,51,51,51,51,51,51,51,51,51,51,51,51,51,51,51,51,51,51,51,51,51,51,51,51,51,51,51,51,51,51,51,51,51,51,51,51,51,51,51,51,51,51,51,51,51,tilt right
51,52,51,34,53,54,51,51,51,51,51,52,51,51,51,51,51,51,51,51,51,52,51,51,51,51,51,52,51,52,51,51,51,56,51,51,51,51,51,53,51,51,51,51,51,54,51,51,51,51,51,53,51,51,51,51,51,52,51,51,51,51,51,50,51,52,51,51,51,50,51,51,51,51,51,49,52,52,51,51,51,49,52,52,51,51,51,50,51,52,51,51,51,51,51,52,51,51,51,51,51,51,51,51,51,51,51,51,51,51,51,51,51,51,51,51,51,51,51,51,51,51,51,51,51,51,51,51,51,51,51,51,51,51,51,51,51,51,51,51,51,51,51,51,51,51,51,51,51,51,51,51,51,51,51,51,51,51,51,51,51,51,51,51,51,51,51,51,51,51,51,51,51,51,51,51,51,51,51,51,tilt right
51,52,51,29,53,56,51,51,51,50,51,52,51,51,51,51,51,51,51,51,51,52,51,51,51,51,51,52,51,53,51,51,51,57,51,50,51,51,51,53,51,51,51,51,51,53,51,51,51,51,52,54,51,51,51,51,52,53,51,51,51,51,52,51,51,51,51,51,52,51,51,52,51,51,52,51,51,51,51,51,51,49,52,52,51,51,51,50,51,52,51,51,51,51,51,52,51,51,51,50,52,51,51,51,51,50,51,52,51,51,51,51,51,51,51,51,51,51,51,51,51,51,51,51,51,52,51,51,51,51,51,51,51,51,51,51,51,51,51,51,51,51,51,51,51,51,51,51,51,51,51,51,51,52,51,51,51,51,51,51,51,51,51,51,51,51,51,51,51,51,51,51,51,51,51,51,51,51,51,51,tilt right
51,51,51,31,54,57,51,51,51,34,53,55,51,52,51,49,51,52,51,51,51,51,51,52,51,51,51,52,51,52,51,52,51,56,51,52,51,51,51,59,51,49,51,51,51,54,51,51,51,51,51,55,51,50,51,51,51,55,51,51,51,51,52,54,51,51,51,51,52,51,51,52,51,51,52,50,51,52,51,51,52,48,52,52,51,51,52,47,52,52,51,51,51,49,52,52,51,51,51,50,51,52,51,51,51,51,51,51,51,51,51,51,51,51,51,51,51,51,51,51,51,51,51,52,51,51,51,51,51,51,51,51,51,51,51,51,51,51,51,51,51,51,51,51,51,51,51,52,51,51,51,51,51,51,51,51,51,51,51,51,51,51,51,51,51,51,51,51,51,51,51,51,51,51,51,51,51,51,51,51,tilt right
51,51,51,36,54,57,51,51,51,29,53,57,51,52,51,51,51,52,51,51,51,50,51,51,51,51,51,51,51,51,51,52,51,55,51,53,51,51,51,61,51,48,51,51,51,53,51,51,51,51,51,54,52,51,51,51,51,53,51,51,51,51,51,53,51,51,51,51,52,53,51,51,51,51,51,52,51,51,51,51,51,50,51,52,51,51,51,50,51,52,51,51,51,50,51,51,51,51,51,50,52,52,51,51,51,50,52,52,51,51,51,51,51,52,51,51,51,51,51,51,51,51,51,51,51,51,51,51,51,51,51,51,51,51,51,51,51,51,51,51,51,51,51,51,51,51,51,52,51,51,51,51,51,51,51,51,51,51,51,51,51,51,51,51,51,52,51,51,51,51,51,51,51,51,51,51,51,51,51,51,tilt right
51,52,51,41,51,55,51,51,51,49,51,53,51,51,51,51,51,52,51,51,51,52,51,51,51,51,51,53,51,52,51,51,51,56,51,50,51,51,51,55,52,50,51,51,51,53,51,51,51,51,51,52,51,51,51,51,51,50,51,52,51,51,51,49,52,52,51,51,51,49,51,52,51,51,51,50,51,52,51,51,51,52,51,51,51,51,51,51,51,52,51,51,51,52,51,51,51,51,51,51,51,52,51,51,51,51,51,52,51,51,51,51,51,52,51,51,51,51,51,52,51,51,51,51,51,52,51,51,51,51,51,52,51,51,51,51,51,51,51,51,51,51,51,51,51,51,51,51,51,51,51,51,51,51,51,51,51,51,51,51,51,51,51,51,51,51,51,52,51,51,51,51,52,51,51,51,51,51,51,51,tilt right
51,52,51,34,51,57,51,51,51,49,51,53,51,51,51,51,51,52,51,51,51,51,51,51,51,51,51,51,51,53,51,51,51,55,51,50,51,51,51,55,51,50,51,51,51,55,51,50,51,51,51,55,51,51,51,51,52,53,51,51,51,51,52,53,51,51,51,51,52,50,52,51,51,51,52,50,51,52,51,51,51,48,52,53,51,51,51,51,51,51,51,51,51,50,51,52,51,51,51,51,51,51,51,51,51,49,52,53,51,51,51,51,51,51,51,51,51,51,51,52,51,51,51,51,51,51,51,51,51,51,51,52,51,51,51,51,51,51,51,51,51,51,51,51,51,51,51,51,51,51,51,51,51,51,51,51,51,51,51,51,51,51,51,51,51,51,51,51,51,51,51,51,51,51,51,51,51,51,51,51,tilt right
51,52,51,65,51,48,51,52,51,62,51,48,51,51,51,56,51,50,51,51,51,54,51,51,51,51,51,52,52,51,51,51,52,49,52,51,51,51,52,47,52,53,51,51,51,49,51,52,51,51,51,49,51,52,51,51,51,51,51,51,51,51,51,51,51,52,51,51,51,52,51,51,51,51,51,51,51,52,51,51,51,52,51,51,51,51,51,51,51,51,51,51,51,51,51,51,51,51,51,51,51,52,51,51,51,52,51,51,51,51,51,51,51,52,51,51,51,51,51,51,51,51,51,51,51,51,51,51,51,51,51,51,51,51,51,51,51,51,51,51,51,51,51,51,51,51,51,51,51,51,51,51,51,51,51,51,51,51,51,51,51,51,51,51,51,51,51,51,51,51,51,51,51,51,51,51,51,51,51,51,tilt right
51,51,51,23,53,58,51,52,51,48,50,53,51,51,51,50,51,52,51,51,51,51,51,51,51,51,51,52,51,53,51,51,51,57,51,50,51,51,51,54,52,51,51,51,51,54,52,50,51,51,51,54,51,51,51,51,51,54,51,51,51,51,51,53,51,51,51,51,52,53,51,51,51,51,52,51,52,52,51,51,52,50,51,52,51,51,51,49,51,52,51,51,51,50,51,51,51,51,51,49,51,52,51,51,51,50,51,52,51,51,51,51,51,52,51,51,51,51,51,51,51,51,51,51,51,51,51,51,51,51,51,51,51,51,51,51,51,51,51,51,51,51,51,51,51,51,51,51,51,51,51,51,51,51,51,52,51,51,51,51,51,51,51,51,51,51,51,51,51,51,51,51,51,51,51,51,51,51,51,51,tilt right
51,52,51,32,52,57,51,51,51,50,51,53,51,51,51,51,51,51,51,51,51,51,51,51,51,51,51,51,51,53,51,51,51,56,51,50,51,51,51,54,51,50,51,51,51,55,52,50,51,51,51,55,52,51,51,51,52,53,51,51,51,51,52,52,51,51,51,51,52,50,52,52,51,51,52,49,52,52,51,51,51,48,51,52,51,51,51,50,51,52,51,51,51,50,51,52,51,51,51,51,51,51,51,51,51,51,51,52,51,51,51,51,51,51,51,51,51,51,51,52,51,51,51,52,51,51,51,51,51,51,51,51,51,51,51,52,51,51,51,51,51,51,51,52,51,51,51,51,51,51,51,51,51,51,51,52,51,51,51,51,51,51,51,51,51,51,51,52,51,51,51,51,51,51,51,51,51,51,51,51,tilt right
51,51,51,20,54,60,51,52,51,43,51,54,51,51,51,50,51,52,51,51,51,51,51,51,51,51,51,52,51,54,51,51,51,58,51,49,51,51,51,55,51,50,51,51,51,54,51,51,51,51,51,54,51,51,51,51,51,54,51,51,51,51,51,53,51,51,51,51,52,52,51,51,51,51,52,50,51,51,51,51,51,49,52,51,51,51,51,49,52,52,51,51,51,50,51,52,51,51,51,51,51,52,51,51,51,51,51,52,51,51,51,51,51,51,51,51,51,51,51,52,51,51,51,51,51,51,51,51,51,51,51,52,51,51,51,51,51,51,51,51,51,51,51,52,51,51,51,52,51,51,51,51,51,51,51,52,51,51,51,51,51,51,51,51,51,51,51,51,51,51,51,51,51,51,51,51,51,51,51,51,tilt right
51,51,51,32,54,58,51,52,51,35,53,56,51,51,51,50,51,52,51,51,51,51,51,52,51,51,51,51,51,52,51,52,51,56,51,52,51,51,51,59,51,49,51,51,51,54,51,50,51,51,51,55,51,50,51,51,51,53,51,51,51,51,52,53,51,51,51,51,52,51,51,52,51,51,52,50,51,51,51,51,51,49,52,52,51,51,51,50,51,52,51,51,51,50,51,52,51,51,51,51,51,52,51,51,51,51,51,52,51,51,51,51,51,52,51,51,51,51,51,51,51,51,51,51,51,52,51,51,51,51,51,51,51,51,51,51,51,52,51,51,51,52,51,51,51,51,51,51,51,51,51,51,51,51,51,51,51,51,51,51,51,51,51,51,51,51,51,51,51,51,51,51,51,51,51,51,51,51,51,51,tilt right
51,52,51,35,53,56,51,51,51,50,51,52,51,51,51,51,51,51,51,51,51,52,51,51,51,51,51,53,51,52,51,51,51,57,51,50,51,51,51,55,51,50,51,51,51,53,51,51,51,51,52,52,51,51,51,51,52,50,52,52,51,51,51,50,51,51,51,51,51,49,52,52,51,51,51,50,51,52,51,51,51,51,51,52,51,51,51,51,51,51,51,51,51,51,51,52,51,51,51,51,51,51,51,51,51,51,51,51,51,51,51,51,51,51,51,51,51,51,51,51,51,51,51,51,51,52,51,51,51,51,51,51,51,51,51,51,51,51,51,51,51,51,51,51,51,51,51,51,51,51,51,51,51,51,51,51,51,51,51,51,51,51,51,51,51,51,51,51,51,51,51,51,51,51,51,51,51,51,51,51,tilt right
51,52,51,35,52,55,51,51,51,50,51,52,51,51,51,51,51,51,51,51,51,51,51,51,51,51,51,52,51,53,51,51,51,57,51,50,51,51,51,54,51,50,51,51,51,54,51,51,51,51,52,53,51,51,51,51,52,51,51,51,51,51,52,50,51,52,51,51,51,49,52,51,51,51,51,49,51,52,51,51,51,50,51,52,51,51,51,51,51,52,51,51,51,51,51,52,51,51,51,51,51,51,51,51,51,51,51,52,51,51,51,51,51,51,51,51,51,51,51,51,51,51,51,51,51,51,51,51,51,51,51,51,51,51,51,51,51,51,51,51,51,51,51,51,51,51,51,51,51,51,51,51,51,51,51,51,51,51,51,51,51,51,51,51,51,51,51,51,51,51,51,51,51,51,51,51,51,51,51,51,tilt right
51,52,51,39,51,54,51,51,51,50,51,52,51,51,51,51,51,51,51,51,51,52,51,51,51,51,51,52,51,52,51,51,51,56,51,50,51,51,51,54,51,50,51,51,51,54,51,51,51,51,51,53,51,51,51,51,52,51,51,51,51,51,52,50,51,52,51,51,51,49,52,52,51,51,51,49,52,52,51,51,51,49,52,52,51,51,51,51,51,51,51,51,51,51,51,52,51,51,51,51,51,51,51,51,51,51,51,52,51,51,51,51,51,51,51,51,51,51,51,51,51,51,51,51,51,52,51,51,51,51,51,51,51,51,51,51,51,52,51,51,51,52,51,51,51,51,51,51,51,51,51,51,51,51,51,51,51,51,51,51,51,51,51,51,51,51,51,51,51,51,51,51,51,51,51,51,51,51,51,52,tilt right
51,52,51,21,55,59,51,52,51,49,51,52,51,51,51,52,51,51,51,51,51,52,51,51,51,51,51,52,51,54,51,51,51,58,51,49,51,51,51,54,51,50,51,51,51,53,51,51,51,51,51,54,51,51,51,51,51,53,51,51,51,51,51,53,51,51,51,51,51,52,51,51,51,51,51,52,51,51,51,51,51,50,51,52,51,51,51,50,52,51,51,51,51,50,51,52,51,51,51,50,51,52,51,51,51,51,51,52,51,51,51,50,51,52,51,51,51,51,51,51,51,51,51,51,51,52,51,51,51,51,51,51,51,51,51,51,51,52,51,51,51,52,51,51,51,51,51,51,51,52,51,51,51,52,51,51,51,51,51,51,51,52,51,51,51,51,51,51,51,51,51,51,51,51,51,51,51,51,51,51,tilt right
51,51,51,26,54,58,51,52,51,39,52,54,51,51,51,51,51,52,51,51,51,51,51,51,51,51,51,51,51,53,51,52,51,57,51,50,51,51,51,57,51,50,51,51,51,53,52,51,51,51,51,53,51,51,51,51,51,53,51,51,51,51,51,52,51,51,51,51,51,52,51,51,51,51,51,52,51,51,51,51,51,51,51,51,51,51,51,50,51,52,51,51,51,50,51,52,51,51,51,50,52,52,51,51,51,50,51,52,51,51,51,50,51,51,51,51,51,51,51,52,51,51,51,51,51,51,51,51,51,51,51,51,51,51,51,51,51,51,51,51,51,51,51,51,51,51,51,51,51,51,51,51,51,51,51,51,51,51,51,51,51,51,51,51,51,51,51,51,51,51,51,51,51,51,51,51,51,51,51,51,tilt right
