AccX1,AccY1,AccZ1,GyrX1,GyrY1,GyrZ1,AccX2,AccY2,AccZ2,GyrX2,GyrY2,GyrZ2,AccX3,AccY3,AccZ3,GyrX3,GyrY3,GyrZ3,AccX4,AccY4,AccZ4,GyrX4,GyrY4,GyrZ4,AccX5,AccY5,AccZ5,GyrX5,GyrY5,GyrZ5,AccX6,AccY6,AccZ6,GyrX6,GyrY6,GyrZ6,AccX7,AccY7,AccZ7,GyrX7,GyrY7,GyrZ7,AccX8,AccY8,AccZ8,GyrX8,GyrY8,GyrZ8,AccX9,AccY9,AccZ9,GyrX9,GyrY9,GyrZ9,AccX10,AccY10,AccZ10,GyrX10,GyrY10,GyrZ10,AccX11,AccY11,AccZ11,GyrX11,GyrY11,GyrZ11,AccX12,AccY12,AccZ12,GyrX12,GyrY12,GyrZ12,AccX13,AccY13,AccZ13,GyrX13,GyrY13,GyrZ13,AccX14,AccY14,AccZ14,GyrX14,GyrY14,GyrZ14,AccX15,AccY15,AccZ15,GyrX15,GyrY15,GyrZ15,AccX16,AccY16,AccZ16,GyrX16,GyrY16,GyrZ16,AccX17,AccY17,AccZ17,GyrX17,GyrY17,GyrZ17,AccX18,AccY18,AccZ18,GyrX18,GyrY18,GyrZ18,AccX19,AccY19,AccZ19,GyrX19,GyrY19,GyrZ19,AccX20,AccY20,AccZ20,GyrX20,GyrY20,GyrZ20,AccX21,AccY21,AccZ21,GyrX21,GyrY21,GyrZ21,AccX22,AccY22,AccZ22,GyrX22,GyrY22,GyrZ22,AccX23,AccY23,AccZ23,GyrX23,GyrY23,GyrZ23,AccX24,AccY24,AccZ24,GyrX24,GyrY24,GyrZ24,AccX25,AccY25,AccZ25,GyrX25,GyrY25,GyrZ25,AccX26,AccY26,AccZ26,GyrX26,GyrY26,GyrZ26,AccX27,AccY27,AccZ27,GyrX27,GyrY27,GyrZ27,AccX28,AccY28,AccZ28,GyrX28,GyrY28,GyrZ28,AccX29,AccY29,AccZ29,GyrX29,GyrY29,GyrZ29,AccX30,AccY30,AccZ30,GyrX30,GyrY30,GyrZ30,Label
27,28,30,55,0,100,29,28,30,39,13,59,29,28,30,31,18,41,29,28,30,26,21,28,29,28,30,22,23,37,30,29,30,15,29,3,30,30,30,13,28,4,30,31,30,14,27,2,30,31,30,16,26,5,30,31,30,16,25,12,30,31,30,17,24,18,30,31,30,19,23,21,30,31,30,21,22,23,30,31,30,24,22,26,30,31,30,28,21,25,30,31,30,27,21,31,30,30,30,28,21,29,30,30,30,28,22,29,30,30,30,26,22,27,30,30,30,25,22,31,30,30,30,26,22,27,30,30,30,25,23,24,30,30,30,23,23,25,30,30,30,24,23,24,30,30,30,23,23,24,30,30,30,23,23,22,30,30,30,23,23,22,30,30,30,23,23,23,30,30,30,22,23,22,30,30,30,23,23,23,up
28,28,31,60,11,100,29,28,31,38,17,57,30,28,31,31,19,39,30,28,31,25,21,26,30,29,31,21,23,36,30,30,31,13,26,2,30,30,31,12,26,1,30,31,31,13,26,2,31,32,31,14,27,5,31,32,31,17,25,14,31,32,31,19,23,20,31,32,30,22,22,24,31,31,30,24,21,26,31,31,30,27,21,29,31,31,30,27,21,28,31,31,30,27,21,28,31,31,31,25,22,29,31,31,30,25,22,27,31,31,30,25,22,27,31,31,30,25,22,26,31,30,30,24,22,28,31,30,31,25,23,25,31,30,31,24,23,26,31,30,31,23,23,25,31,30,31,23,23,23,31,30,31,22,23,23,31,31,31,23,23,22,31,31,31,22,23,22,31,31,31,23,23,22,31,31,31,23,23,22,up
31,31,34,56,12,94,32,32,33,37,18,58,32,31,33,30,19,42,32,31,33,25,20,30,32,32,33,23,22,35,33,32,33,14,25,4,33,33,33,13,25,3,33,34,33,13,26,2,33,34,33,14,26,2,33,34,33,15,25,11,33,34,33,18,24,17,34,34,33,22,23,21,34,34,33,24,23,22,34,34,33,26,21,29,34,34,33,28,21,29,34,34,33,29,20,31,33,33,33,26,21,33,33,33,33,27,21,32,33,33,33,26,22,31,33,33,33,25,23,27,33,33,33,23,23,26,33,33,33,23,23,23,33,33,33,22,23,23,33,33,33,22,23,22,33,33,33,23,23,22,33,33,33,23,23,22,33,33,33,23,23,22,33,33,33,23,23,23,33,33,33,23,23,22,33,33,33,23,23,23,up
31,30,33,68,28,98,32,31,33,47,30,63,32,30,33,43,31,43,32,31,33,32,32,33,33,32,33,30,33,43,33,33,33,23,35,17,33,33,33,23,35,12,33,34,33,21,36,14,33,35,33,28,35,21,33,34,33,31,34,26,33,34,33,33,33,31,34,34,33,34,33,34,34,34,33,38,32,38,34,34,33,36,32,40,34,34,33,38,32,40,33,33,33,36,33,43,33,33,33,37,33,39,33,33,33,35,32,39,33,33,33,35,33,37,33,33,33,34,33,37,33,33,33,34,33,35,33,33,33,33,33,34,33,33,33,33,33,33,33,33,33,33,33,33,33,33,33,33,33,33,33,33,33,33,33,33,33,33,33,33,33,32,33,33,33,33,33,33,33,33,33,33,33,33,33,33,33,33,33,33,up
31,31,34,66,25,91,32,31,33,47,30,60,32,32,33,41,31,48,32,31,33,39,32,39,32,32,33,34,33,46,33,32,33,23,35,18,33,33,33,24,35,17,33,33,33,23,35,15,33,34,33,23,35,19,33,34,33,27,34,22,33,34,33,31,34,26,33,34,33,33,33,30,34,34,33,34,33,35,34,34,33,37,33,36,34,34,33,37,33,39,34,34,33,37,32,39,33,33,33,36,33,41,33,33,33,37,33,40,33,33,33,35,33,39,33,33,33,35,33,37,33,33,33,34,33,37,33,33,33,34,33,35,33,33,33,34,33,34,33,33,33,33,33,34,33,33,33,33,33,33,33,33,33,33,33,33,33,33,33,33,33,33,33,33,33,33,33,33,33,33,33,33,33,33,33,33,33,33,33,33,up
31,31,34,64,26,88,32,31,34,49,27,57,32,31,33,41,29,45,32,31,33,35,31,36,32,32,33,32,33,42,33,32,33,24,36,17,33,33,33,21,37,17,33,34,33,22,37,18,33,34,33,26,36,19,33,35,33,31,34,24,34,35,33,32,33,30,33,34,33,35,33,35,34,34,33,39,32,36,33,34,33,36,33,37,33,33,33,36,33,39,33,33,33,36,33,40,34,33,33,36,32,37,33,33,33,35,33,39,33,33,33,36,32,37,33,33,33,34,33,37,33,33,33,34,33,36,33,33,33,33,33,34,33,33,33,33,33,35,33,33,33,33,33,32,33,33,33,33,33,33,33,33,33,33,33,33,33,33,33,33,33,34,33,33,33,34,33,33,33,33,33,33,33,33,33,33,33,33,33,33,up
31,31,34,67,26,82,32,32,33,48,29,58,32,32,33,41,30,49,32,32,33,39,31,43,32,32,33,36,32,46,33,32,33,25,35,21,33,32,33,24,36,19,33,33,33,25,36,18,33,33,33,24,36,17,33,34,33,23,36,19,33,34,33,28,35,24,33,34,33,32,34,29,34,34,33,32,33,32,34,34,33,35,33,35,34,34,33,37,32,37,33,34,33,38,32,38,33,33,33,36,32,39,33,33,33,37,32,39,33,33,33,36,32,42,33,33,33,37,32,38,33,33,33,35,32,37,33,33,33,35,33,37,33,33,33,34,33,35,33,33,33,33,33,33,33,33,33,33,33,33,33,33,33,33,33,33,33,33,33,33,33,33,33,33,33,33,33,33,33,33,33,33,33,33,33,33,33,33,33,33,up
31,31,34,70,28,92,32,31,33,49,30,62,32,31,33,39,31,49,32,31,33,35,32,38,33,32,33,32,33,43,33,33,33,23,35,18,33,33,33,24,34,17,33,33,33,26,35,16,33,34,33,27,35,17,33,34,33,28,35,24,33,34,33,31,34,28,34,34,33,32,34,32,34,34,33,34,33,35,34,34,33,35,33,37,33,34,33,37,32,38,33,33,33,37,32,40,33,33,33,37,32,39,33,33,33,36,33,40,33,33,33,36,32,38,33,33,33,35,33,38,33,33,33,35,33,36,33,33,33,34,33,36,33,33,33,34,33,34,33,33,33,33,33,33,33,33,33,33,33,33,33,33,33,33,33,33,33,33,33,33,33,33,33,33,33,33,33,33,33,33,33,33,33,33,33,33,33,33,33,33,up
31,31,34,70,25,89,32,31,34,47,28,58,32,31,33,41,30,43,32,31,33,36,32,35,32,32,33,31,34,43,33,33,33,22,36,20,33,33,33,24,36,17,33,34,33,24,36,18,33,34,33,25,35,21,33,34,33,31,33,27,33,34,33,33,33,28,34,34,33,33,33,33,34,34,33,35,33,36,34,34,33,36,33,37,33,33,33,37,33,37,33,33,33,36,33,38,33,33,33,36,32,38,33,33,33,35,32,39,33,33,33,36,32,36,33,33,33,35,32,36,33,33,33,34,33,38,33,33,33,35,33,36,33,33,33,33,33,35,33,33,33,33,33,33,33,33,33,32,33,33,33,33,33,33,33,32,33,33,33,33,33,33,33,33,33,33,33,33,33,33,33,33,33,33,33,33,33,33,33,33,up
32,32,35,77,25,94,33,32,34,53,28,61,33,32,34,42,31,47,33,32,34,39,32,36,33,32,34,31,34,45,34,33,34,21,37,18,34,34,34,22,37,19,34,34,34,22,37,15,34,35,34,23,36,22,34,35,34,29,35,27,34,35,34,34,33,28,34,35,34,35,33,35,34,35,34,39,33,34,34,35,34,39,33,39,34,35,34,40,34,36,34,34,34,36,34,41,34,34,34,37,34,40,34,34,34,36,34,41,34,34,34,37,34,39,34,34,34,36,33,40,34,34,34,36,34,38,34,34,34,34,34,36,34,34,34,34,34,34,34,34,34,33,34,34,34,34,34,34,34,33,34,34,34,33,34,34,34,34,34,34,34,33,34,34,34,34,34,34,34,34,34,34,34,34,34,34,34,34,34,34,up
33,32,35,76,25,96,34,32,35,52,29,61,34,32,35,45,32,42,34,33,35,34,35,33,34,34,35,30,36,45,35,35,35,23,38,20,35,35,35,24,38,17,35,36,35,23,38,19,35,36,35,31,36,28,35,36,35,34,35,29,35,36,35,35,35,33,35,36,35,36,35,35,35,36,35,40,35,35,35,36,35,38,35,40,35,36,35,40,34,37,35,35,35,37,34,42,35,35,35,38,34,40,35,35,35,37,35,41,35,35,35,38,34,40,35,35,35,36,35,39,35,35,35,36,35,37,35,35,35,36,35,36,35,35,35,35,35,36,35,35,35,35,35,35,35,35,35,35,35,35,35,35,35,35,35,35,35,35,35,35,35,35,35,35,35,35,35,35,35,35,35,35,35,35,35,35,35,35,35,35,up
33,33,35,81,26,98,34,33,35,52,29,63,34,33,35,44,31,46,34,33,35,38,34,35,34,34,35,31,36,46,35,34,35,22,38,20,35,35,35,24,38,18,35,36,35,23,38,17,35,36,35,29,36,26,35,36,35,34,35,28,35,36,35,35,35,32,35,36,35,37,35,37,35,36,35,39,35,36,35,35,35,37,35,41,35,35,35,38,35,40,35,35,35,38,34,42,35,35,35,37,34,42,35,35,35,37,34,40,35,35,35,37,34,40,35,35,35,37,35,38,35,35,35,35,35,37,35,35,35,36,35,36,35,35,35,35,35,36,35,35,35,35,35,35,35,35,35,35,35,35,35,35,35,35,35,35,35,35,35,35,35,35,35,35,35,35,35,35,35,35,35,35,35,35,35,35,35,35,35,35,up
33,33,36,79,27,94,34,33,35,54,29,62,34,33,35,43,32,49,34,33,35,40,34,38,34,33,35,33,35,45,35,34,35,22,38,20,35,35,35,22,38,21,35,36,35,25,38,18,35,36,35,28,37,21,35,36,35,32,36,29,35,36,35,32,35,32,35,36,35,37,35,36,35,36,35,40,35,34,35,36,35,37,35,37,35,35,35,38,34,40,35,35,35,42,34,39,35,35,35,37,34,40,35,35,35,36,35,41,35,35,35,37,35,41,35,35,35,37,35,40,35,35,35,36,35,39,35,35,35,36,35,38,35,35,35,35,35,35,35,35,35,35,35,35,35,35,35,35,35,35,35,35,35,35,35,35,35,35,35,35,35,35,35,35,35,35,35,35,35,35,35,35,35,35,35,35,35,35,35,35,up
34,32,35,86,22,89,34,33,35,53,27,58,34,32,35,41,31,44,34,33,35,37,34,34,34,34,35,32,37,44,35,35,35,21,39,20,35,35,35,23,40,19,35,36,35,24,40,19,35,36,35,29,37,26,35,36,35,35,35,29,35,36,35,36,34,32,36,36,35,39,34,38,35,36,35,40,34,37,35,36,35,39,34,41,35,35,35,37,34,41,35,35,35,37,34,41,35,35,35,35,34,42,35,35,35,37,34,38,35,35,35,36,34,39,35,35,35,37,34,36,35,35,35,35,35,37,35,35,35,36,35,35,35,35,35,35,35,36,35,35,35,35,35,35,35,35,35,35,35,35,35,35,35,35,35,35,35,35,35,35,35,35,35,35,35,35,35,35,35,35,35,35,35,35,35,35,35,35,35,35,up
33,33,35,75,23,93,34,33,35,53,28,60,34,33,35,42,31,47,34,33,35,38,34,36,34,34,35,33,36,45,35,34,35,23,39,20,35,35,35,23,39,21,35,36,35,24,39,19,35,36,35,29,37,24,35,36,35,34,35,29,35,36,35,37,34,32,35,36,35,36,35,37,35,36,35,41,34,35,35,35,35,36,35,39,35,35,35,38,35,39,35,35,35,36,35,42,35,35,35,39,34,37,35,35,35,36,35,42,35,35,35,38,34,38,35,35,35,36,34,40,35,35,35,37,35,37,35,35,35,35,35,38,35,35,35,36,35,36,35,35,35,35,35,36,35,35,35,35,35,34,35,35,35,35,35,35,35,35,35,35,35,34,35,35,35,35,35,35,35,35,35,35,35,35,35,35,35,35,35,35,up
33,33,35,76,24,96,34,33,35,48,29,65,34,33,35,42,32,51,34,33,35,40,33,41,34,33,35,36,35,47,35,34,35,24,38,20,35,35,35,27,38,20,35,35,35,28,38,17,35,36,35,27,38,19,35,36,35,29,37,25,35,36,35,34,36,29,35,36,35,34,35,33,36,36,35,35,35,36,36,36,35,38,34,38,35,36,35,38,34,38,35,36,35,39,34,41,35,35,35,37,35,42,35,35,35,38,35,38,35,35,35,35,35,43,35,35,35,38,34,38,35,35,35,35,34,40,35,35,35,37,34,37,35,35,35,35,34,38,35,35,35,36,35,36,35,35,35,35,35,36,35,35,35,35,35,34,35,35,35,35,35,35,35,35,35,35,35,35,35,35,35,35,35,35,35,35,35,35,35,34,up
33,32,35,68,28,100,34,33,35,47,32,65,34,33,35,38,34,52,34,33,35,40,33,39,34,33,35,35,34,47,34,34,35,26,36,18,34,34,35,28,36,20,34,35,35,28,36,16,35,35,35,24,37,22,35,36,35,29,36,26,35,36,35,30,36,31,35,36,35,35,36,33,35,36,35,36,36,35,35,36,35,40,35,35,35,35,35,38,34,40,35,35,35,41,34,36,35,35,35,35,35,42,35,35,35,38,34,39,35,35,35,34,34,41,35,35,35,37,34,38,35,35,35,35,34,39,35,34,35,37,33,37,35,35,35,35,34,37,35,35,35,36,34,35,35,35,35,35,35,36,35,35,35,35,35,35,35,35,35,34,35,34,35,35,35,35,35,34,35,35,35,34,35,35,35,35,35,35,35,35,up
33,32,35,74,23,94,34,33,35,49,28,63,34,32,35,41,31,47,34,33,35,39,33,36,34,33,35,32,35,44,34,34,35,23,38,20,34,35,35,26,38,19,35,35,35,25,38,17,35,36,35,27,37,24,35,36,35,35,35,28,35,36,35,34,35,31,35,36,35,35,35,37,35,35,35,38,35,35,35,35,35,37,35,38,35,35,35,36,34,40,35,35,35,37,34,41,35,35,35,38,33,39,35,35,35,37,34,40,35,35,35,37,34,38,35,34,35,36,34,39,35,35,35,36,34,37,35,35,35,35,35,36,35,35,35,35,35,35,35,35,35,35,35,35,35,35,35,35,35,34,35,35,35,35,35,35,35,35,35,35,34,35,35,35,35,35,35,35,35,35,35,35,35,34,35,35,35,35,35,35,up
33,32,35,76,25,98,34,33,35,52,29,64,34,32,35,44,31,48,34,33,35,38,33,37,34,33,35,31,35,45,34,34,35,23,37,19,34,34,35,24,37,18,34,35,35,23,37,17,35,36,35,26,36,22,35,36,35,34,34,27,35,36,35,33,34,30,35,36,35,35,35,35,35,36,34,37,35,37,35,35,35,41,36,36,35,35,35,36,36,40,35,35,35,39,35,38,35,35,35,36,34,44,35,35,35,39,34,37,35,35,35,35,33,42,35,35,35,38,33,38,35,34,35,35,34,39,35,34,35,36,34,37,35,35,35,35,35,35,35,35,35,35,35,35,35,35,35,35,35,35,35,35,35,35,35,35,35,35,35,35,35,34,35,35,35,35,35,35,35,35,35,35,35,35,35,35,35,35,35,35,up
33,32,35,72,24,91,34,33,35,49,28,62,34,33,35,43,31,48,34,33,35,39,32,38,34,33,35,34,35,44,34,34,35,24,38,21,34,34,35,25,38,19,34,35,35,25,39,18,35,36,35,26,38,20,35,36,35,32,37,26,35,36,35,34,36,30,35,36,35,35,35,34,35,36,35,35,35,36,35,36,35,38,34,37,35,35,35,35,34,40,35,35,35,38,33,39,35,35,35,37,33,43,35,35,35,39,33,40,35,34,35,36,33,41,35,35,35,37,33,36,35,34,35,35,34,39,35,34,35,36,35,38,35,35,35,34,35,34,35,35,35,35,35,35,35,35,35,35,35,34,35,35,35,35,35,35,35,35,35,35,35,35,35,35,35,35,35,35,35,35,35,35,35,34,35,35,35,35,35,35,up
31,30,33,73,20,100,32,30,32,49,26,61,32,30,32,41,29,42,32,30,32,32,32,32,32,31,32,30,34,45,32,32,33,22,36,18,32,33,33,22,36,16,32,33,33,23,35,18,32,34,33,29,34,26,32,33,33,32,32,28,33,33,33,32,32,32,33,33,33,34,32,32,33,33,32,34,32,34,33,33,32,36,32,33,33,33,32,33,32,37,33,33,32,36,32,34,33,33,32,33,32,37,33,33,32,36,32,34,33,33,32,32,32,39,33,32,32,36,32,33,33,32,32,33,32,37,33,32,32,35,32,34,33,32,32,33,32,34,33,32,32,33,33,32,33,32,32,32,33,32,32,32,32,32,33,32,32,33,33,32,33,32,32,33,32,32,33,32,32,33,32,32,33,32,33,32,32,33,32,32,up
31,30,33,70,22,99,32,30,33,49,27,62,32,30,33,42,29,45,32,30,32,35,31,34,32,31,33,30,32,44,32,32,32,22,35,17,32,32,33,23,35,15,32,33,33,23,35,16,32,33,33,25,35,21,33,34,33,29,33,27,33,33,32,32,33,28,33,33,32,33,33,32,33,34,32,34,32,32,33,33,32,35,32,38,33,33,32,36,32,35,33,33,32,35,32,38,33,33,32,35,32,38,33,32,32,35,32,41,33,32,32,35,32,36,33,32,32,35,32,37,33,32,32,33,32,37,33,32,32,33,32,34,33,32,32,32,32,34,33,32,32,33,32,33,32,32,32,32,33,32,32,32,32,32,32,32,32,32,32,32,33,33,32,32,32,32,33,32,32,32,32,32,33,33,32,32,32,33,32,33,up
31,30,33,63,27,89,31,31,33,45,29,60,32,31,33,40,30,47,32,31,33,37,30,39,32,31,33,33,32,45,32,31,33,25,33,19,32,32,33,25,34,16,32,32,33,25,35,16,32,33,33,23,36,19,33,34,33,26,35,21,33,34,32,29,34,27,33,34,32,34,33,29,33,33,32,30,33,35,33,33,33,36,31,35,33,33,32,37,31,37,33,33,32,36,31,33,33,33,32,32,32,42,33,33,32,37,31,37,33,32,32,35,32,38,33,32,32,34,32,37,33,32,32,34,32,38,32,32,32,33,32,35,32,32,32,33,32,34,32,32,32,32,32,34,32,32,32,33,32,32,32,32,32,32,33,32,32,32,32,33,33,32,32,32,32,32,33,33,32,32,32,33,33,32,32,32,32,32,33,33,up
31,30,33,62,24,93,32,31,33,48,28,60,32,31,33,41,29,48,32,31,33,38,30,38,32,31,32,33,31,45,32,32,32,24,34,17,32,32,33,24,35,18,32,33,33,25,35,16,32,33,32,24,36,18,33,34,33,26,35,24,33,33,33,32,33,27,33,34,32,30,33,30,33,33,32,32,33,32,33,34,32,34,32,36,33,33,32,37,32,33,33,33,32,34,32,38,33,33,32,36,32,37,33,33,32,36,32,40,33,32,32,35,32,39,33,32,32,34,32,38,33,32,32,34,32,36,33,32,32,34,32,36,32,32,32,33,32,35,32,32,32,33,33,33,32,32,32,32,33,32,32,32,32,32,33,32,32,33,33,32,33,32,32,33,32,32,32,32,32,33,32,32,32,32,32,32,32,32,32,33,up
31,30,33,68,24,87,31,31,33,47,27,59,32,31,33,41,29,46,32,31,33,38,30,38,32,31,33,32,32,45,32,32,32,24,35,20,32,32,33,25,35,18,32,33,32,24,36,16,32,33,33,23,36,22,33,33,33,28,34,21,33,34,33,32,33,26,33,33,32,30,33,30,33,33,32,32,32,34,33,33,32,35,32,33,33,33,32,35,32,34,33,33,32,34,32,38,33,33,32,35,32,37,33,33,32,35,32,37,33,33,32,35,32,36,33,32,32,34,32,38,33,32,32,34,32,36,33,32,32,33,32,35,33,32,32,34,32,34,32,32,32,33,32,35,32,32,32,33,32,33,32,32,32,32,33,33,32,32,32,33,32,32,32,32,32,32,33,32,32,32,32,32,33,32,32,32,32,32,33,32,up
31,30,33,65,24,90,31,31,33,48,27,59,32,31,33,38,29,49,32,31,33,36,30,39,32,31,33,34,31,45,32,32,32,23,34,17,32,32,32,25,36,19,32,33,33,26,36,16,32,33,32,25,36,17,33,33,33,26,35,22,33,34,33,30,34,26,33,34,32,32,33,30,33,34,32,32,32,34,33,33,32,35,32,36,33,33,32,36,31,37,33,33,32,36,32,37,33,33,32,34,32,38,33,32,32,35,32,38,33,32,32,34,32,37,33,32,32,34,32,36,33,32,32,33,32,35,33,32,32,33,32,35,33,32,32,33,32,35,32,32,32,33,32,34,33,32,32,33,32,33,32,32,32,33,32,33,32,32,32,32,32,33,32,32,32,32,32,33,32,32,32,32,32,32,32,32,32,32,33,32,up
31,30,33,65,22,88,31,30,33,45,27,55,31,30,33,36,30,42,32,31,33,35,32,32,32,31,33,31,33,42,32,32,33,24,35,17,32,33,33,24,35,19,33,33,32,25,35,17,33,33,32,25,34,23,33,34,32,31,33,26,33,33,32,32,33,29,33,33,32,33,33,32,33,33,32,37,32,34,33,33,32,36,32,35,33,33,32,35,32,39,33,33,32,34,32,40,33,32,32,35,32,37,33,32,32,33,32,40,33,32,32,35,32,36,32,32,32,33,32,37,33,32,32,33,32,33,32,32,32,32,32,34,32,32,32,33,32,34,32,32,32,33,32,33,32,32,32,33,32,33,32,32,32,32,32,33,32,32,32,32,32,32,32,32,32,32,33,32,32,32,32,32,32,32,32,32,32,32,32,32,up
31,30,33,63,25,90,31,30,33,45,28,59,32,30,33,37,30,46,32,31,33,35,31,35,32,31,32,31,33,41,32,32,32,25,35,17,32,32,33,25,35,19,32,33,32,27,35,16,32,33,32,26,35,18,33,34,33,30,34,27,33,33,32,31,33,30,33,34,33,32,34,32,33,33,32,34,33,34,33,33,32,34,32,34,33,33,32,35,32,35,33,33,32,34,31,38,33,32,32,35,31,35,33,33,32,33,32,38,33,33,32,35,32,36,33,32,32,33,32,38,33,32,32,35,32,35,33,32,32,33,32,36,32,32,32,34,32,35,32,32,32,33,32,34,32,32,32,33,32,33,32,32,32,32,33,32,32,32,32,32,33,32,32,32,32,32,33,32,32,33,32,32,33,32,32,32,32,32,32,32,up
30,31,33,61,24,87,31,31,33,47,27,57,32,31,33,40,29,47,32,31,33,34,32,41,32,31,33,34,32,46,32,31,32,26,35,18,32,32,32,24,35,18,32,32,32,25,35,19,32,33,32,26,34,17,33,33,32,24,34,20,33,34,33,32,33,25,33,34,32,31,33,30,33,33,32,33,33,32,33,33,32,36,32,36,33,33,32,37,32,33,33,33,32,33,32,40,33,33,32,35,32,36,33,33,32,34,32,37,33,32,32,34,32,39,33,33,32,35,32,36,33,32,32,34,32,37,33,32,32,34,32,35,32,32,32,33,32,36,32,32,32,33,32,33,32,32,32,32,33,33,32,32,32,32,33,32,32,32,32,32,33,32,32,32,32,32,32,32,32,32,32,32,32,32,32,32,32,32,32,33,up
31,30,33,68,23,88,31,31,33,45,27,59,32,31,33,38,30,47,32,31,33,36,31,37,32,31,33,32,32,43,32,32,33,24,35,18,32,32,33,25,35,18,32,33,32,26,35,17,33,33,32,25,35,19,33,34,33,30,34,24,33,33,33,32,33,29,33,33,32,31,33,32,33,33,32,33,32,35,33,33,32,35,32,34,33,33,32,34,32,35,33,33,32,34,32,38,33,33,32,35,32,37,33,32,32,34,32,36,33,33,32,34,32,36,33,32,32,34,32,35,33,32,32,33,32,35,33,32,32,34,32,34,33,32,32,33,32,34,33,32,32,33,32,34,33,32,32,33,32,34,32,32,32,33,32,33,32,32,32,33,32,33,32,32,32,32,32,33,32,32,32,32,32,33,32,32,32,32,32,32,up
31,30,33,67,25,89,31,31,33,46,28,59,32,31,33,37,30,47,32,31,33,37,31,36,32,31,32,33,33,42,32,32,33,24,34,18,32,32,33,25,35,19,32,33,33,26,35,17,32,33,32,24,35,20,33,34,33,28,34,26,33,33,32,31,33,29,33,33,32,32,33,31,33,33,32,34,33,33,33,33,32,34,32,34,33,33,32,35,32,34,33,33,32,34,32,37,33,33,32,34,32,36,33,33,32,34,32,37,33,33,32,34,32,37,33,32,32,34,32,36,33,32,32,34,32,36,33,32,32,34,32,34,33,32,32,33,32,35,33,32,32,33,32,34,32,32,32,33,32,33,32,32,32,33,32,33,32,32,32,33,32,33,32,32,32,32,33,33,32,32,32,32,32,32,32,32,32,32,33,32,up
31,31,33,59,31,96,32,31,33,51,30,60,32,31,33,43,30,47,32,31,33,36,30,39,32,31,33,33,32,45,33,32,33,25,33,16,32,32,33,21,34,17,33,33,33,22,35,19,33,34,33,26,35,15,33,34,33,29,34,24,33,34,33,32,33,28,33,34,33,31,33,32,33,34,33,33,33,34,33,34,33,35,32,36,33,33,33,35,32,35,33,33,33,34,32,40,33,33,33,37,31,36,33,33,33,35,32,37,33,33,33,35,32,35,33,33,33,33,32,36,33,33,33,33,32,34,33,33,33,33,32,36,33,33,33,34,32,34,33,33,33,32,32,34,33,33,33,33,32,33,33,33,33,33,32,33,33,33,33,33,32,33,33,33,33,32,32,32,33,33,33,33,33,32,33,33,33,32,32,33,up
31,31,33,66,25,89,32,31,33,48,28,59,32,31,33,40,30,46,32,31,33,36,31,37,32,31,33,31,32,42,33,32,33,24,34,17,33,33,33,24,35,18,33,33,33,25,35,17,33,34,33,24,35,20,33,34,33,29,33,24,33,34,33,32,33,29,33,34,33,31,33,31,33,34,33,36,32,34,33,33,33,34,32,33,33,33,33,36,32,36,33,33,33,32,33,39,33,33,33,35,32,34,33,33,33,32,32,40,33,33,33,36,32,36,33,33,33,33,32,38,33,33,33,35,32,35,33,33,33,34,32,35,33,33,33,33,32,35,33,33,33,33,32,34,33,33,33,33,32,33,33,33,33,32,32,32,33,33,33,32,33,33,33,33,33,32,32,32,33,33,33,32,32,33,33,33,33,33,32,32,up
31,31,33,60,28,91,32,31,33,45,31,61,32,31,33,37,32,49,32,31,33,36,32,37,32,31,33,33,33,42,33,32,33,25,34,18,33,32,33,25,33,21,33,33,33,28,33,16,33,34,33,27,34,17,33,34,33,29,33,28,33,33,33,31,33,28,33,34,33,31,33,30,33,34,33,31,33,31,33,34,33,33,33,33,33,34,33,34,32,33,33,33,33,34,32,36,33,33,33,35,32,36,33,33,33,35,32,38,33,33,33,35,32,38,33,33,33,35,32,39,33,33,33,35,32,37,33,33,33,34,32,37,33,33,33,34,32,35,33,33,33,32,33,33,33,33,33,33,33,32,33,33,33,32,33,32,33,33,33,32,33,31,33,33,33,32,33,32,33,33,33,33,33,32,33,33,33,32,32,33,up
31,31,33,60,29,83,32,31,33,43,30,57,32,32,33,39,31,47,32,31,33,37,31,40,32,31,33,35,31,45,33,32,33,26,33,21,33,32,33,27,33,19,33,33,33,26,34,19,33,33,33,26,34,19,33,34,33,26,35,21,33,34,33,29,34,26,33,34,33,32,33,28,33,34,33,32,33,30,33,34,33,33,33,33,33,34,33,34,32,36,33,33,33,35,33,34,33,33,33,33,33,39,33,33,33,34,32,38,33,33,33,35,32,38,33,33,33,35,32,36,33,33,33,34,31,36,33,33,33,33,32,35,33,33,33,33,32,35,33,33,33,33,32,34,33,33,33,33,32,34,33,33,33,33,33,33,33,33,33,33,32,33,33,33,33,33,32,32,33,33,33,32,33,33,33,33,33,32,33,32,up
31,31,33,58,29,86,32,31,33,45,30,56,32,31,33,37,31,44,32,31,33,36,31,35,32,31,33,32,33,41,33,32,33,27,34,17,33,33,33,25,35,19,33,33,33,25,35,18,33,34,33,26,34,21,33,34,33,29,33,26,33,34,33,27,32,31,33,34,33,36,32,31,33,34,33,33,33,32,33,34,33,36,32,35,33,33,33,34,32,40,33,33,33,39,32,33,33,33,33,31,32,41,33,33,33,37,31,37,33,33,33,33,32,39,33,33,33,35,32,34,33,33,33,32,33,36,33,33,33,34,32,32,33,33,33,31,33,34,33,33,33,34,33,32,33,33,33,32,33,33,33,33,33,33,32,32,33,33,33,33,32,33,33,33,33,33,32,32,33,33,33,32,32,33,33,33,33,33,32,32,up
31,30,33,59,26,82,32,30,33,45,28,50,32,31,33,35,30,36,32,32,33,31,32,30,32,32,33,31,33,41,33,33,33,25,34,19,33,33,33,25,35,21,33,33,33,28,34,21,33,34,33,31,33,28,33,33,33,32,33,29,33,33,33,32,33,33,33,33,33,34,33,32,33,33,33,33,32,34,33,33,33,37,32,33,33,33,33,34,32,38,33,33,33,34,32,36,33,33,33,34,32,40,33,33,33,35,32,33,33,33,33,31,33,40,33,33,33,34,32,36,33,33,33,34,32,34,33,33,33,33,32,33,33,33,33,33,32,32,33,33,33,32,33,32,33,33,33,32,33,32,33,33,33,32,33,32,33,33,33,32,33,33,33,33,33,32,32,32,33,33,33,32,33,33,33,33,33,33,32,32,up
31,30,33,55,28,89,32,31,33,45,29,54,32,31,33,38,29,39,32,31,33,31,32,31,32,32,33,32,33,42,32,33,33,26,34,18,33,33,33,24,35,18,33,34,33,26,35,21,33,34,33,31,34,25,33,33,33,30,33,30,33,34,33,33,32,31,33,34,33,31,33,34,33,33,33,36,31,32,33,33,33,33,32,36,33,33,33,36,32,34,33,33,33,33,32,40,33,33,33,38,32,34,33,33,33,32,32,40,33,33,33,36,32,35,33,33,33,32,32,37,33,33,33,35,32,33,33,33,33,32,33,34,33,33,33,33,33,31,33,33,33,31,33,34,33,33,33,34,33,30,33,33,33,31,33,33,33,33,33,33,32,32,33,33,33,32,33,33,33,33,33,33,32,32,33,33,33,32,33,33,up
31,31,33,58,24,77,32,31,33,40,29,54,32,31,33,36,30,43,32,31,33,34,31,35,32,32,33,32,32,40,33,32,33,27,35,22,33,33,33,28,34,21,33,33,33,28,34,21,33,34,33,30,34,22,33,33,33,29,34,27,33,33,33,30,33,31,33,34,33,33,32,30,33,33,33,31,33,33,33,33,33,35,32,33,33,33,33,34,32,35,33,33,33,35,32,32,33,33,33,32,32,39,33,33,33,36,32,31,33,33,33,30,33,39,33,33,33,35,32,33,33,33,33,32,32,37,33,33,33,35,32,33,33,33,33,31,32,37,33,33,33,35,32,32,33,33,33,32,32,35,33,33,33,34,32,32,33,33,33,32,32,34,33,33,33,33,32,33,33,33,33,32,33,33,33,33,33,33,32,32,up
31,31,33,54,26,78,32,31,33,43,29,53,32,31,33,35,31,43,32,31,33,34,31,36,32,32,33,33,32,41,33,32,33,26,34,21,33,33,33,26,35,21,33,33,33,28,34,21,33,33,33,27,34,22,33,34,33,29,33,27,33,33,33,31,33,30,33,34,33,33,32,31,33,33,33,32,33,33,33,33,33,36,32,32,33,33,33,33,32,35,33,33,33,34,32,33,33,33,33,32,32,37,33,33,33,34,32,34,33,33,33,32,32,38,33,33,33,34,32,35,33,33,33,33,32,37,33,33,33,34,32,35,33,33,33,34,32,35,33,33,33,33,32,34,33,33,33,32,33,33,33,33,33,32,33,32,33,33,33,32,33,32,33,33,33,32,33,32,33,33,33,33,32,32,33,33,33,33,32,33,up
31,31,33,55,25,78,32,31,33,40,29,55,32,31,33,37,30,44,32,31,33,36,31,36,32,32,33,32,32,41,33,32,33,27,34,22,33,33,33,28,34,20,33,33,33,29,35,19,33,33,33,27,35,23,33,34,33,29,34,25,33,34,33,30,33,29,33,34,33,31,33,31,33,34,33,31,33,33,33,33,33,32,32,35,33,33,33,35,31,34,33,33,33,34,32,35,33,33,33,35,32,36,33,33,33,34,32,35,33,33,33,35,32,34,33,33,33,33,32,35,33,33,33,34,32,34,33,33,33,33,32,35,33,33,33,34,32,33,33,33,33,32,32,36,33,33,33,34,32,34,33,33,33,33,32,34,33,33,33,33,32,34,33,33,33,33,32,33,33,33,33,33,33,32,33,33,33,33,32,32,up
31,31,34,54,27,72,32,32,33,39,30,52,32,32,33,36,31,43,32,31,33,35,31,36,32,32,33,32,32,40,32,32,33,26,34,23,33,33,33,28,34,23,33,33,33,29,33,22,33,33,33,28,34,24,33,34,33,30,33,27,33,33,33,32,32,30,33,33,33,32,33,30,33,33,33,32,33,33,33,33,33,34,33,32,33,33,33,34,32,33,33,33,33,32,32,35,33,33,33,34,32,35,33,33,33,33,32,36,33,33,33,34,32,34,33,33,33,32,32,36,33,33,33,34,32,34,33,33,33,32,32,36,33,33,33,34,32,34,33,33,33,32,32,35,33,33,33,33,32,33,33,33,33,33,32,34,33,33,33,33,32,33,33,33,33,33,32,33,33,33,33,33,33,32,33,33,33,33,32,33,up
31,31,33,54,27,80,32,31,33,43,29,53,32,31,33,38,30,42,32,31,33,34,32,34,32,32,33,32,33,40,33,32,33,27,35,19,33,33,33,26,35,20,33,33,33,25,35,20,33,34,33,28,34,22,33,34,33,29,34,28,33,34,33,32,33,30,33,33,33,32,32,33,33,34,33,35,32,34,33,33,33,34,32,36,33,33,33,36,32,34,33,33,33,32,32,38,33,33,33,35,32,35,33,33,33,33,32,36,33,33,33,34,32,33,33,33,33,32,32,36,33,33,33,34,32,34,33,33,33,33,32,35,33,33,33,34,32,33,33,33,33,33,32,34,33,33,33,34,32,34,33,33,33,33,32,33,33,33,33,33,32,32,33,33,33,32,32,32,33,33,33,32,33,33,33,33,33,33,33,32,up
31,31,33,49,27,72,32,32,33,38,30,52,32,32,33,36,31,44,32,32,33,35,31,38,32,32,33,33,31,42,33,32,33,29,33,23,33,33,33,30,34,22,33,33,33,29,34,21,33,33,33,27,35,23,33,33,33,27,35,24,33,34,33,29,33,28,33,33,33,28,33,29,33,34,33,30,33,33,33,34,33,33,32,32,33,34,33,35,31,34,33,33,33,35,32,34,33,33,33,36,32,35,33,33,33,35,32,36,33,33,33,35,32,36,33,33,33,34,33,37,33,33,33,34,32,35,33,33,33,34,32,37,33,33,33,33,32,35,33,33,33,33,33,34,33,33,33,32,32,33,33,33,33,33,32,32,33,33,33,32,32,33,33,33,33,33,32,32,33,33,33,32,32,33,33,33,33,32,32,32,up
31,31,33,50,30,87,32,31,33,41,31,58,32,30,33,42,30,40,32,31,33,34,32,32,32,32,33,31,33,40,33,32,33,28,34,21,33,33,33,28,33,16,33,34,33,25,35,20,33,34,33,29,34,25,33,34,33,32,33,29,33,33,33,33,33,31,33,33,33,32,33,34,33,33,33,32,33,34,33,33,33,32,32,35,33,33,33,33,32,35,33,33,33,32,32,38,33,33,33,35,31,36,33,33,33,33,31,36,33,33,33,34,32,33,33,33,33,33,33,35,33,33,33,33,33,32,33,33,33,33,34,33,33,33,33,32,33,33,33,33,33,34,32,33,33,33,33,31,32,34,33,33,33,34,32,32,33,33,33,32,32,35,33,33,33,35,32,32,33,33,33,32,32,35,33,33,33,34,32,32,up
31,31,33,57,34,85,32,31,33,39,33,59,32,31,33,37,32,45,32,31,33,34,32,36,32,32,33,31,33,41,33,32,33,27,32,21,33,33,33,28,33,18,33,33,33,27,33,19,33,34,33,28,33,22,33,34,33,30,33,27,33,33,33,30,33,30,33,33,33,31,33,33,33,33,33,33,33,32,33,33,33,33,33,34,33,33,33,35,33,34,33,33,33,34,32,36,33,33,33,34,32,34,33,33,33,33,31,36,33,33,33,34,31,36,33,33,33,34,31,36,33,33,33,33,32,35,33,33,33,34,33,36,33,33,33,34,33,34,33,33,33,33,33,33,33,33,33,32,34,35,33,33,33,34,33,31,33,33,33,32,32,34,33,33,33,33,32,32,33,33,33,32,32,32,33,33,33,33,32,32,up
31,31,34,55,27,81,31,31,33,39,30,53,32,31,33,35,31,39,32,32,33,33,32,32,32,32,33,32,33,41,33,33,33,26,34,22,33,33,33,28,34,20,33,33,33,29,34,22,33,33,33,29,34,26,33,33,33,30,33,30,33,33,33,32,33,30,33,33,33,33,32,32,33,33,33,32,32,33,33,33,33,34,32,34,33,33,33,33,32,35,33,33,33,35,32,33,33,33,33,31,32,37,33,33,33,35,32,34,33,33,33,32,33,37,33,33,33,35,32,33,33,33,33,32,33,37,33,33,33,35,32,32,33,33,33,32,32,36,33,33,33,34,32,32,33,33,33,32,33,33,33,33,33,33,32,33,33,33,33,33,32,33,33,33,33,32,32,33,33,33,33,32,32,33,33,33,33,33,32,32,up
31,31,34,62,25,77,32,31,33,46,28,53,32,31,33,35,30,43,32,32,33,34,32,35,32,32,33,32,33,40,33,32,33,25,35,21,33,33,33,24,35,22,33,33,33,27,35,21,33,33,33,26,34,22,33,34,33,31,33,27,33,33,33,30,33,31,33,34,33,34,32,32,33,33,33,35,32,33,33,33,33,35,32,32,33,33,33,34,32,36,33,33,33,35,32,35,33,33,33,34,32,36,33,33,33,33,32,37,33,33,33,34,32,35,33,33,33,33,32,37,33,33,33,34,32,34,33,33,33,33,32,35,33,33,33,33,32,34,33,33,33,33,32,34,33,33,33,33,32,33,33,33,33,33,32,33,33,33,33,32,32,32,33,33,33,32,33,32,33,33,33,32,33,32,33,33,33,33,32,32,up
31,31,33,59,24,77,31,31,33,39,29,53,32,31,33,36,31,41,32,32,33,35,31,34,32,32,33,32,33,40,33,32,33,27,35,22,33,33,33,28,34,20,33,33,33,27,35,21,33,33,33,26,34,25,33,34,33,31,33,27,33,33,33,30,33,30,33,34,33,32,32,33,33,33,33,33,32,34,33,33,33,36,32,32,33,33,33,33,33,36,33,33,33,35,32,34,33,33,33,33,32,37,33,33,33,36,32,34,33,33,33,32,32,37,33,33,33,35,32,34,33,33,33,32,32,37,33,33,33,35,32,34,33,33,33,32,32,36,33,33,33,34,32,33,33,33,33,32,32,34,33,33,33,33,32,32,33,33,33,32,33,33,33,33,33,33,33,32,33,33,33,32,33,33,33,33,33,33,33,32,up
31,31,34,64,25,77,32,31,33,42,29,54,32,32,33,37,30,44,32,32,33,35,31,38,32,32,33,34,32,42,33,32,33,26,34,22,33,33,33,28,34,21,33,33,33,27,35,21,33,33,33,27,34,22,33,33,33,27,34,25,33,34,33,29,34,28,33,34,33,32,33,30,33,33,33,33,33,32,33,33,33,35,32,32,33,33,33,34,32,35,33,33,33,34,32,33,33,33,33,32,32,37,33,33,33,33,32,35,33,33,33,34,32,37,33,33,33,34,32,36,33,33,33,34,32,36,33,33,33,33,32,36,33,33,33,34,32,34,33,33,33,32,32,35,33,33,33,34,32,33,33,33,33,32,33,33,33,33,33,33,32,32,33,33,33,33,33,33,33,33,33,33,33,32,33,33,33,33,32,32,up
31,31,33,56,22,86,32,31,33,38,29,58,32,31,33,35,31,45,32,31,33,35,31,36,32,32,33,33,32,41,33,32,33,28,35,19,33,33,33,29,35,18,33,33,33,29,34,18,33,33,33,27,35,21,33,34,33,28,35,25,33,34,33,31,34,28,33,34,33,29,34,33,33,34,33,33,32,33,33,33,33,32,32,35,33,33,33,36,32,32,33,33,33,32,32,40,33,33,33,35,31,34,33,33,33,32,32,41,33,33,33,36,31,35,33,33,33,33,32,38,33,33,33,35,31,36,33,33,33,34,32,37,33,33,33,35,32,34,33,33,33,33,32,33,33,33,33,33,33,32,33,33,33,32,33,32,33,33,33,32,33,32,33,33,33,32,32,32,33,33,33,33,32,32,33,33,33,33,32,33,up
31,31,33,55,23,83,32,32,33,42,28,58,32,31,33,38,30,46,32,31,33,36,31,38,32,32,33,34,32,43,33,32,33,27,35,20,33,32,33,28,35,19,33,33,33,27,35,18,33,33,33,27,35,20,33,34,33,27,35,24,33,34,33,31,34,29,33,33,33,29,34,32,33,34,33,31,32,34,33,33,33,36,32,32,33,33,33,33,32,35,33,33,33,34,32,35,33,33,33,35,31,37,33,33,33,36,32,33,33,33,33,31,32,39,33,33,33,34,32,34,33,33,33,33,32,37,33,33,33,34,32,36,33,33,33,33,32,35,33,33,33,33,32,35,33,33,33,33,32,33,33,33,33,32,32,34,33,33,33,33,33,32,33,33,33,32,33,32,33,33,33,32,33,32,33,33,33,32,33,33,up
31,31,33,54,24,83,32,31,33,42,29,57,32,31,33,36,31,46,32,31,33,35,32,37,32,32,33,33,32,42,33,32,33,28,35,19,33,33,33,28,35,19,33,33,33,28,35,19,33,34,33,27,35,21,33,34,33,28,34,26,33,34,33,30,33,29,33,34,33,32,32,32,33,33,33,33,32,34,33,33,33,36,32,34,33,33,33,35,32,35,33,33,33,34,32,35,33,33,33,34,32,37,33,33,33,34,32,35,33,33,33,33,32,37,33,33,33,34,32,35,33,33,33,34,32,35,33,33,33,33,32,36,33,33,33,34,32,34,33,33,33,33,32,34,33,33,33,33,32,32,33,33,33,32,33,33,33,33,33,33,33,32,33,33,33,32,32,33,33,33,33,33,33,32,33,33,33,32,33,32,up
31,31,33,54,29,83,32,31,33,42,31,55,32,32,33,37,31,46,32,31,33,36,31,38,32,32,33,34,32,43,33,32,33,28,33,19,33,33,33,28,34,20,33,33,33,28,34,19,33,33,33,27,35,21,33,34,33,28,34,24,33,34,33,29,34,28,33,34,33,30,33,30,33,34,33,32,33,34,33,34,33,34,32,32,33,33,33,34,32,35,33,33,33,36,32,34,33,33,33,34,33,36,33,33,33,34,32,36,33,33,33,33,32,38,33,33,33,35,32,35,33,33,33,32,32,38,33,33,33,34,31,36,33,33,33,33,32,36,33,33,33,33,32,34,33,33,33,33,32,33,33,33,33,33,32,33,33,33,33,32,33,32,33,33,33,32,33,32,33,33,33,32,33,32,33,33,33,32,33,32,up
31,31,33,52,28,81,32,32,33,45,30,57,32,32,33,38,31,48,32,31,33,35,31,41,32,32,33,34,32,44,33,32,33,28,33,20,33,32,33,27,33,20,33,33,33,28,34,19,33,33,33,28,34,20,33,34,33,27,34,21,33,34,33,29,34,27,33,34,33,30,33,30,33,34,33,32,33,32,33,34,33,32,33,32,33,34,33,35,32,34,33,33,33,34,32,33,33,33,33,33,32,36,33,33,33,33,32,36,33,33,33,35,32,36,33,33,33,34,32,37,33,33,33,35,32,37,33,33,33,34,32,36,33,33,33,35,32,36,33,33,33,33,32,35,33,33,33,33,32,34,33,33,33,32,32,33,33,33,33,32,32,32,33,33,33,32,32,32,33,33,33,32,33,32,33,33,33,32,33,32,up
31,31,33,57,27,83,32,31,33,41,30,57,32,31,33,38,31,46,32,31,33,37,31,37,32,32,33,33,32,42,33,32,33,27,34,19,33,33,33,28,34,19,33,33,33,27,35,19,33,34,33,25,35,21,33,34,33,28,34,25,33,34,33,30,33,30,33,34,33,31,33,32,33,34,33,32,33,35,33,33,33,35,32,33,33,33,33,34,32,35,33,33,33,34,32,35,33,33,33,35,32,36,33,33,33,34,32,34,33,33,33,34,32,36,33,33,33,34,32,35,33,33,33,34,32,35,33,33,33,33,32,36,33,33,33,34,32,34,33,33,33,33,32,35,33,33,33,33,32,34,33,33,33,33,32,34,33,33,33,33,32,32,33,33,33,32,32,32,33,33,33,33,32,33,33,33,33,32,33,32,up
31,31,33,58,28,84,32,31,33,44,29,57,32,31,33,37,31,46,32,31,33,36,31,38,32,32,33,32,32,43,33,32,33,27,33,19,33,33,33,26,34,19,33,33,33,27,34,18,33,33,33,26,35,21,33,34,33,28,34,24,33,34,33,31,34,28,33,34,33,32,33,33,33,34,33,33,33,33,33,33,33,34,32,36,33,33,33,36,32,34,33,33,33,33,32,37,33,33,33,34,32,36,33,33,33,33,32,36,33,33,33,35,32,34,33,33,33,33,32,37,33,33,33,34,32,35,33,33,33,33,32,35,33,33,33,34,32,35,33,33,33,33,32,35,33,33,33,33,32,33,33,33,33,32,33,33,33,33,33,33,32,32,33,33,33,32,33,32,33,33,33,32,32,32,33,33,33,32,33,32,up
31,31,33,57,26,83,32,31,33,42,29,56,32,31,33,38,30,43,32,31,33,36,32,34,32,32,33,32,33,40,33,32,33,26,34,20,33,33,33,26,34,19,33,33,33,25,35,20,33,34,33,26,34,22,33,34,33,30,34,28,33,34,33,31,33,30,33,34,33,33,33,33,33,33,33,34,33,33,33,33,33,35,32,34,33,33,33,34,32,35,33,33,33,35,32,35,33,33,33,33,32,35,33,33,33,34,32,34,33,33,33,32,32,37,33,33,33,34,32,33,33,33,33,32,32,36,33,33,33,34,32,34,33,33,33,33,32,36,33,33,33,34,32,33,33,33,33,33,32,34,33,33,33,33,32,33,33,33,33,33,32,33,33,33,33,33,32,33,33,33,33,33,32,33,33,33,33,32,33,33,up
30,31,33,56,26,70,32,32,33,41,30,51,32,32,33,37,31,43,32,32,33,36,31,39,32,32,33,35,31,43,33,32,33,28,33,25,33,32,33,28,34,23,33,33,33,28,34,23,33,33,33,27,34,23,33,33,33,27,34,25,33,34,33,30,34,26,33,33,33,31,33,29,33,34,33,33,33,30,33,33,33,33,33,33,33,33,33,35,33,30,33,33,33,33,33,34,33,33,33,33,32,32,33,33,33,32,32,35,33,33,33,33,32,32,33,33,33,33,32,35,33,33,33,34,32,35,33,33,33,34,32,35,33,33,33,34,32,37,33,33,33,34,32,35,33,33,33,33,32,37,33,33,33,34,32,34,33,33,33,33,32,34,33,33,33,33,32,33,33,33,33,32,33,33,33,33,33,32,33,32,up
31,31,33,49,28,67,32,32,33,40,30,49,32,32,33,36,31,42,32,32,33,35,31,39,32,32,33,35,31,43,33,32,33,30,32,27,33,32,33,29,33,26,33,32,33,30,34,25,33,33,33,29,34,24,33,33,33,27,34,25,33,33,33,28,34,26,33,33,33,30,34,26,33,34,33,31,33,29,33,34,33,32,33,31,33,33,33,34,33,31,33,33,33,33,32,33,33,33,33,35,32,34,33,33,33,32,32,35,33,33,33,34,32,33,33,33,33,32,32,35,33,33,33,34,32,32,33,33,33,32,33,35,33,33,33,33,32,32,33,33,33,32,32,35,33,33,33,33,32,34,33,33,33,33,32,34,33,33,33,33,32,35,33,33,33,34,32,34,33,33,33,33,32,35,33,33,33,33,32,34,up
30,31,33,57,28,72,31,32,33,41,30,52,32,32,33,38,31,44,32,32,33,36,31,39,32,32,33,34,31,43,32,32,33,27,33,25,33,32,33,28,34,23,33,33,33,27,34,22,33,33,33,26,35,23,33,33,33,28,34,24,33,34,33,30,34,25,33,34,33,31,33,29,33,34,33,32,33,32,33,34,33,34,33,31,33,33,33,33,33,33,33,33,33,33,32,33,33,33,33,32,32,36,33,33,33,35,32,33,33,33,33,33,32,36,33,33,33,34,32,34,33,33,33,33,32,36,33,33,33,34,32,35,33,33,33,33,32,36,33,33,33,34,32,35,33,33,33,33,32,35,33,33,33,33,32,35,33,33,33,33,32,34,33,33,33,33,32,33,33,33,33,33,32,32,33,33,33,32,33,32,up
30,31,34,55,28,75,32,32,33,43,30,54,32,32,33,39,31,45,32,32,33,36,31,41,32,32,33,34,31,44,33,32,33,28,33,24,33,32,33,27,34,21,33,33,33,26,34,21,33,33,33,27,34,21,33,33,33,27,34,21,33,34,33,30,33,25,33,34,33,31,33,29,33,34,33,31,33,31,33,34,33,33,33,33,33,34,33,34,33,33,33,33,33,33,33,36,33,33,33,35,32,36,33,33,33,34,32,36,33,33,33,34,32,36,33,33,33,34,32,38,33,33,33,34,32,35,33,33,33,33,32,37,33,33,33,34,32,35,33,33,33,33,32,35,33,33,33,33,32,34,33,33,33,32,32,33,33,33,33,32,33,32,33,33,33,32,33,32,33,33,33,32,33,32,33,33,33,32,33,32,up
31,31,33,56,27,82,32,32,33,43,30,56,32,32,33,37,31,47,32,31,33,38,30,39,32,31,33,34,31,44,33,32,33,27,34,20,33,32,33,27,34,21,33,33,33,26,34,19,33,33,33,24,35,22,33,34,33,29,34,22,33,34,33,30,33,28,33,34,33,33,32,31,33,33,33,32,33,33,33,33,33,34,33,32,33,33,33,33,32,35,33,33,33,34,32,32,33,33,33,33,32,36,33,33,33,35,32,35,33,33,33,34,32,35,33,33,33,34,32,36,33,33,33,34,32,36,33,33,33,34,32,37,33,33,33,34,32,35,33,33,33,33,32,35,33,33,33,33,32,35,33,33,33,33,32,33,33,33,33,32,32,33,33,33,33,33,32,33,33,33,33,32,33,33,33,33,33,32,33,32,up
31,31,34,52,27,73,32,32,33,42,30,53,32,32,33,39,31,45,32,32,33,35,31,40,32,32,33,34,31,44,33,32,33,29,33,25,33,32,33,27,34,22,33,33,33,27,34,22,33,33,33,27,34,21,33,33,33,28,34,22,33,34,33,30,34,24,33,34,33,32,33,28,33,34,33,31,34,31,33,34,33,34,33,32,33,34,33,33,33,33,33,33,33,34,32,35,33,33,33,32,32,38,33,33,33,36,31,35,33,33,33,34,31,38,33,33,33,35,31,35,33,33,33,33,32,37,33,33,33,35,32,34,33,33,33,33,32,35,33,33,33,33,32,34,33,33,33,33,32,34,33,33,33,33,32,33,33,33,33,33,32,33,33,33,33,32,32,32,33,33,33,33,32,33,33,33,33,32,32,33,up
31,31,34,56,28,74,32,31,33,41,31,52,32,32,33,35,32,44,32,32,33,36,31,37,32,32,33,34,32,42,33,32,33,27,33,23,33,32,33,29,34,22,33,33,33,29,34,20,33,33,33,26,35,22,33,34,33,28,34,24,33,34,33,31,34,25,33,34,33,30,34,29,33,34,33,34,33,31,33,34,33,33,33,33,33,33,33,33,32,34,33,33,33,34,32,37,33,33,33,34,32,37,33,33,33,33,31,38,33,33,33,35,31,38,33,33,33,35,31,36,33,33,33,33,32,37,33,33,33,34,32,35,33,33,33,32,32,35,33,33,33,33,32,33,33,33,33,32,33,33,33,33,33,33,32,32,33,33,33,32,33,32,33,33,33,32,33,32,33,33,33,33,32,33,33,33,33,32,32,32,up
31,31,33,51,27,74,32,32,33,42,29,51,32,32,33,36,31,44,32,32,33,36,31,38,32,32,33,34,32,43,32,32,33,28,34,23,33,32,33,29,34,23,33,33,33,28,34,21,33,33,33,27,35,22,33,34,33,28,34,25,33,34,33,31,34,26,33,34,33,30,33,30,33,34,33,33,33,31,33,34,33,34,33,33,33,33,33,35,32,33,33,33,33,32,32,37,33,33,33,35,32,35,33,33,33,33,32,37,33,33,33,34,31,36,33,33,33,33,32,37,33,33,33,35,32,34,33,33,33,32,32,35,33,33,33,33,32,34,33,33,33,32,32,34,33,33,33,33,32,33,33,33,33,32,33,33,33,33,33,33,32,33,33,33,33,33,32,33,33,33,33,33,32,33,33,33,33,33,32,33,up
31,31,33,53,26,80,32,31,33,43,29,54,32,31,33,38,30,44,32,31,33,35,31,35,32,32,33,32,33,41,33,32,33,27,34,20,33,33,33,26,35,21,33,33,33,26,35,21,33,34,33,27,35,22,33,34,33,31,34,27,33,34,33,32,33,29,33,34,33,32,33,32,33,33,33,35,33,33,33,33,33,34,32,33,33,33,33,33,32,35,33,33,33,33,32,37,33,33,33,35,32,34,33,33,33,33,32,36,33,33,33,34,32,35,33,33,33,34,32,35,33,33,33,33,32,35,33,33,33,34,32,35,33,33,33,33,32,34,33,33,33,33,32,34,33,33,33,33,32,34,33,33,33,33,32,33,33,33,33,33,33,33,33,33,33,32,32,32,33,33,33,32,33,32,33,33,33,32,33,33,up
31,31,33,57,28,73,31,31,33,41,30,51,32,31,33,36,31,42,32,32,33,35,31,35,32,32,33,32,32,41,33,32,33,27,34,22,33,33,33,27,34,23,33,33,33,27,34,22,33,33,33,27,35,25,33,34,33,30,33,25,33,33,33,30,33,29,33,34,33,33,33,30,33,33,33,34,32,32,33,33,33,34,32,32,33,33,33,33,32,34,33,33,33,34,32,35,33,33,33,33,32,35,33,33,33,34,32,35,33,33,33,33,32,35,33,33,33,34,32,36,33,33,33,33,32,36,33,33,33,34,32,35,33,33,33,33,32,36,33,33,33,34,32,35,33,33,33,33,32,34,33,33,33,33,32,33,33,33,33,33,33,32,33,33,33,32,33,33,33,33,33,32,32,32,33,33,33,32,33,32,up
31,31,33,49,31,76,31,32,33,39,32,53,32,32,33,38,32,43,32,32,33,37,31,37,32,32,33,33,32,42,33,32,33,29,33,23,33,33,33,28,33,21,33,33,33,26,33,21,33,33,33,26,34,24,33,34,33,30,34,24,33,34,33,30,34,31,33,33,33,33,33,30,33,33,33,33,33,32,33,33,33,34,32,33,33,33,33,33,32,34,33,33,33,33,32,33,33,33,33,33,32,33,33,33,33,33,32,35,33,33,33,33,32,34,33,33,33,33,32,36,33,33,33,34,32,35,33,33,33,33,32,37,33,33,33,34,32,35,33,33,33,33,32,36,33,33,33,34,32,34,33,33,33,33,32,34,33,33,33,33,32,33,33,33,33,32,33,33,33,33,33,32,33,32,33,33,33,32,32,33,up
31,31,34,55,26,76,32,31,33,39,30,54,32,32,33,36,31,42,32,31,33,37,31,34,32,32,33,32,32,40,32,32,33,28,34,22,33,33,33,29,34,21,33,33,33,29,35,19,33,33,33,27,35,25,33,34,33,31,34,26,33,33,33,31,33,29,33,34,33,32,33,32,33,33,33,32,33,32,33,34,33,33,32,34,33,33,33,33,32,35,33,33,33,33,32,36,33,33,33,33,32,35,33,33,33,33,31,35,33,33,33,34,32,35,33,33,33,34,32,34,33,33,33,33,32,36,33,33,33,34,32,36,33,33,33,34,32,37,33,33,33,34,31,36,33,33,33,33,32,34,33,33,33,33,32,34,33,33,33,32,33,32,33,33,33,32,33,32,33,33,33,32,33,32,33,33,33,33,33,32,up
30,31,33,48,29,82,31,31,33,42,30,54,32,31,33,36,31,43,32,31,33,34,32,36,32,32,33,33,32,42,33,32,33,29,34,19,33,33,33,27,34,20,33,33,33,28,34,21,33,33,33,27,34,22,33,34,33,29,33,27,33,33,33,31,33,29,33,34,33,31,33,31,33,33,33,31,32,33,33,33,33,35,32,32,33,33,33,35,33,33,33,33,33,33,32,36,33,33,33,35,32,37,33,33,33,35,32,36,33,33,33,34,32,36,33,33,33,33,32,39,33,33,33,34,32,34,33,33,33,32,32,36,33,33,33,34,32,34,33,33,33,32,32,35,33,33,33,34,32,33,33,33,33,32,32,33,33,33,33,33,32,32,33,33,33,32,33,33,33,33,33,33,32,32,33,33,33,32,33,32,up
31,31,33,49,28,80,32,31,33,46,29,53,32,31,33,38,30,45,32,31,33,35,31,37,32,32,33,34,32,42,33,32,33,28,34,18,33,33,33,25,35,21,33,33,33,27,35,20,33,33,33,26,35,20,33,34,33,28,34,24,33,34,33,30,34,28,33,34,33,32,33,30,33,34,33,30,33,34,33,34,33,36,32,33,33,33,33,33,32,37,33,33,33,36,30,35,33,33,33,34,31,41,33,33,33,39,31,35,33,33,33,34,32,40,33,33,33,36,32,34,33,33,33,32,32,37,33,33,33,34,32,33,33,33,33,31,33,34,33,33,33,32,33,32,33,33,33,31,33,33,33,33,33,33,33,32,33,33,33,32,33,32,33,33,33,32,32,32,33,33,33,33,32,33,33,33,33,33,32,32,up
31,31,33,56,25,80,32,31,33,44,28,54,32,31,33,37,30,43,32,31,33,35,32,34,32,32,33,31,33,40,33,32,33,26,34,20,33,33,33,27,34,20,33,33,33,29,34,18,33,34,33,27,34,23,33,34,33,31,33,28,33,33,33,31,33,30,33,34,33,30,33,31,33,33,33,30,33,34,33,33,33,33,32,34,33,33,33,34,32,33,33,33,33,34,32,35,33,33,33,34,32,34,33,33,33,36,31,37,33,33,33,35,32,35,33,33,33,35,32,37,33,33,33,35,32,37,33,33,33,35,32,35,33,33,33,32,32,36,33,33,33,34,32,34,33,33,33,32,33,33,33,33,33,32,32,33,33,33,33,32,32,32,33,33,33,32,32,33,33,33,33,33,32,32,33,33,33,33,32,32,up
31,31,34,52,33,80,32,31,33,40,32,56,32,31,33,36,32,44,32,31,33,34,32,35,32,32,33,32,32,39,33,32,33,27,32,21,33,33,33,28,32,20,33,33,33,29,33,21,33,34,33,29,33,21,33,34,33,30,33,28,33,33,33,30,34,32,33,33,33,33,33,31,33,33,33,29,33,34,33,33,33,35,31,32,33,33,33,33,32,35,33,33,33,37,32,32,33,33,33,33,33,39,33,33,33,36,32,34,33,33,33,32,33,39,33,33,33,35,32,35,33,33,33,33,32,38,33,33,33,34,32,35,33,33,33,34,32,34,33,33,33,32,32,34,33,33,33,33,33,32,33,33,33,32,33,33,33,33,33,33,33,31,33,33,33,32,33,32,33,33,33,33,33,32,33,33,33,32,32,33,up
31,31,33,57,31,82,32,31,33,43,32,57,32,31,33,40,32,43,32,31,33,34,33,33,32,32,33,32,33,39,33,32,33,27,33,21,33,33,33,27,33,19,33,34,33,26,34,21,33,34,33,29,33,26,33,33,33,32,32,31,33,33,33,31,33,33,33,33,33,31,33,35,33,33,33,33,32,33,33,33,33,32,32,33,33,33,33,33,32,31,33,33,33,33,32,31,33,33,33,32,33,31,33,33,33,32,33,31,33,33,33,34,33,31,33,33,33,33,32,33,33,33,33,33,32,36,33,33,33,34,32,36,33,33,33,33,32,34,33,33,33,33,32,35,33,33,33,32,32,35,33,33,33,34,32,33,33,33,33,32,32,34,33,33,33,35,32,33,33,33,33,33,32,36,33,33,33,34,32,34,up
40,37,38,26,41,0,40,38,38,29,39,16,40,38,38,33,39,20,40,38,38,34,39,24,39,38,38,35,39,23,39,38,38,40,39,43,39,38,38,41,39,44,38,38,38,40,39,45,38,38,38,41,38,46,38,38,38,41,38,50,38,38,38,39,37,46,38,38,38,40,37,45,38,38,38,41,37,45,38,38,38,41,37,46,38,38,38,41,37,46,38,38,38,40,38,44,38,38,38,40,38,41,38,38,38,39,39,38,38,38,39,38,39,36,38,38,39,38,39,35,38,38,39,38,39,33,38,38,38,36,39,33,38,38,38,35,39,33,38,38,38,36,39,33,38,38,38,36,39,34,38,39,38,37,39,34,38,39,38,37,38,36,38,39,38,38,38,37,38,38,38,39,38,38,38,38,38,39,38,39,down
40,36,38,32,42,10,40,37,38,31,41,18,39,38,38,33,40,20,40,38,38,33,40,22,40,38,38,34,40,23,39,39,38,37,39,35,39,39,38,41,38,42,39,38,38,42,38,47,38,38,38,42,37,50,38,38,38,42,37,49,38,38,38,42,37,52,38,38,38,40,37,46,38,38,38,41,37,45,39,38,38,42,37,43,39,38,38,41,37,45,38,39,38,40,37,46,38,39,38,40,37,45,38,39,38,39,38,43,38,38,39,38,38,40,38,38,39,37,38,36,37,38,39,36,39,32,38,38,39,35,40,30,38,38,39,36,40,29,38,38,38,35,40,30,38,39,38,36,40,32,38,39,38,38,39,34,38,39,38,39,38,35,38,39,38,38,38,38,38,38,38,38,38,39,38,38,38,39,38,39,down
40,37,37,26,43,8,40,38,38,29,42,18,40,38,38,33,40,22,39,38,38,34,40,26,39,38,38,34,40,24,39,38,38,37,38,34,39,38,38,41,37,40,38,38,38,42,38,46,38,38,38,41,37,49,38,38,38,42,37,47,38,38,38,43,37,50,38,38,38,41,37,49,38,38,38,40,37,46,38,38,38,42,38,43,38,38,38,41,38,43,38,38,38,40,38,43,38,39,38,39,38,43,38,39,38,38,38,41,38,39,39,38,38,40,38,38,39,38,39,38,38,38,39,37,39,37,38,38,39,38,39,35,38,38,38,37,39,33,38,38,38,36,39,33,38,38,38,36,39,33,38,38,38,37,39,32,38,39,38,37,39,34,38,39,38,38,39,36,38,38,38,38,38,37,38,38,38,38,38,38,down
41,37,37,28,42,3,40,38,38,32,41,19,40,38,38,33,40,25,39,38,38,34,40,28,39,38,38,35,39,24,39,38,38,39,38,39,39,38,38,41,37,42,38,38,38,41,37,45,38,38,38,42,37,46,38,38,38,43,37,47,38,38,38,41,37,49,38,38,38,41,38,49,38,38,38,41,38,47,38,38,38,41,38,46,38,38,38,41,38,44,38,38,38,39,38,42,38,38,39,38,38,39,38,38,39,38,38,36,38,38,39,37,39,34,38,38,39,36,39,33,38,38,39,37,39,32,38,38,38,38,39,32,38,38,38,36,39,34,38,39,38,37,39,35,38,38,38,38,38,36,38,38,38,36,39,36,38,38,38,37,39,38,38,38,38,39,38,38,38,38,38,39,38,37,38,38,38,38,38,39,down
41,37,37,27,42,1,40,38,38,31,41,17,40,38,38,32,40,23,39,38,38,33,40,26,39,38,38,35,39,23,39,38,38,39,38,39,39,38,38,42,37,45,38,38,38,41,37,47,38,38,38,42,37,47,38,38,38,43,37,48,38,38,38,41,37,50,38,38,38,40,37,48,38,38,38,41,37,45,38,38,38,41,38,44,38,38,38,39,38,44,38,39,38,39,38,43,38,39,39,38,38,41,38,38,39,39,38,38,38,38,39,38,39,35,38,38,39,37,39,34,38,38,39,36,39,32,38,38,38,36,39,32,38,38,38,36,39,32,38,38,38,36,39,34,38,39,38,37,39,35,38,39,38,38,39,36,38,38,38,38,38,37,38,38,38,38,38,38,38,38,38,39,38,38,38,38,38,38,38,39,down
41,37,38,29,45,0,40,38,38,32,43,15,40,38,38,32,41,22,40,38,38,33,41,26,40,38,38,33,40,22,39,38,38,37,38,37,39,38,38,41,37,43,38,38,38,41,37,48,38,38,38,41,36,49,38,38,38,45,36,48,38,38,38,44,37,51,38,38,38,40,37,49,38,38,38,41,37,46,38,38,38,42,38,43,38,38,38,39,38,43,38,39,38,38,38,43,38,39,39,39,38,41,38,39,39,38,38,39,38,39,39,38,38,38,38,38,38,38,39,36,38,38,38,37,39,35,38,38,38,36,39,34,38,38,38,37,39,34,38,38,38,37,39,34,38,38,38,37,39,34,38,38,38,37,39,35,38,38,38,38,39,35,38,38,38,37,39,36,38,38,38,38,38,37,38,38,38,38,38,38,down
41,38,38,27,44,3,40,38,38,32,42,17,40,38,38,32,41,22,40,38,38,34,40,25,40,38,38,34,40,23,39,38,38,37,38,37,39,38,38,40,37,42,38,38,38,42,37,46,38,38,38,40,37,50,38,38,38,42,36,49,38,38,38,43,37,49,38,38,38,42,38,49,38,38,38,41,37,47,38,38,38,42,37,44,38,38,38,41,37,43,38,38,38,39,37,43,38,39,38,38,38,42,38,39,39,38,38,40,38,38,39,38,39,37,38,38,39,37,39,35,38,38,39,37,39,34,38,38,38,37,39,32,38,38,38,37,39,33,38,38,38,37,39,33,38,38,38,36,39,35,38,39,38,37,39,35,38,38,38,37,39,37,38,38,38,38,38,38,38,38,38,38,38,38,38,38,38,38,38,39,down
40,37,38,31,47,0,40,38,38,33,43,16,40,38,38,32,42,22,39,38,38,33,41,25,39,38,38,35,40,21,39,38,38,37,38,36,39,38,38,40,37,42,38,38,38,42,36,46,38,38,38,42,36,48,38,38,38,43,36,49,38,38,38,43,36,51,38,38,38,42,37,49,38,38,38,42,37,48,39,38,38,42,37,46,38,38,38,40,37,44,38,38,38,38,37,43,38,38,38,37,38,41,38,39,39,36,39,39,38,39,39,38,39,36,38,38,39,38,39,34,38,38,39,37,40,33,38,38,38,37,40,33,38,38,38,37,39,33,38,38,38,37,39,34,38,38,38,37,39,34,38,38,38,37,39,35,38,38,38,38,39,36,38,38,38,38,38,38,38,38,38,38,38,38,38,38,38,39,38,39,down
41,38,38,27,44,4,40,38,38,33,42,20,39,38,38,34,40,27,39,38,38,34,40,30,39,38,38,34,39,25,39,38,38,38,38,38,39,38,38,39,38,40,39,38,38,41,38,43,38,38,38,42,37,45,38,38,38,42,37,45,38,38,38,42,37,46,38,38,38,41,37,48,38,38,38,40,37,48,38,38,38,41,37,46,38,38,38,41,38,44,38,39,38,40,38,44,38,39,38,39,38,42,38,39,38,39,38,39,38,38,38,38,38,37,38,38,39,38,39,36,38,38,39,37,39,34,38,38,38,36,39,33,38,38,38,36,39,33,38,38,38,36,39,34,38,38,38,37,39,34,38,38,38,37,39,34,38,38,38,38,38,36,38,38,38,38,38,37,38,38,38,38,38,38,38,38,38,38,38,38,down
41,37,38,26,46,1,40,38,38,31,42,17,40,38,38,34,41,23,39,38,38,33,41,27,39,38,38,34,40,23,39,38,38,39,38,38,39,38,38,41,37,42,38,38,38,41,37,46,38,38,38,42,36,47,38,38,38,43,36,47,38,38,38,42,37,49,38,38,38,41,37,50,38,38,38,41,37,48,38,38,38,42,37,45,38,38,38,40,37,44,38,39,38,39,38,43,38,38,39,39,38,40,38,38,39,38,38,37,38,38,39,37,39,34,38,38,39,37,39,33,38,38,38,36,40,32,38,38,38,36,40,32,38,39,38,37,39,33,38,38,38,37,39,34,38,38,38,38,39,35,38,38,38,38,38,37,38,38,38,38,38,37,38,38,38,38,39,38,38,38,38,38,38,38,38,38,38,38,38,38,down
41,37,38,30,45,0,40,38,38,32,43,17,40,38,38,33,42,23,40,38,38,34,41,28,40,38,38,35,40,24,39,39,38,39,38,41,39,39,39,41,37,44,39,39,39,41,37,47,38,39,39,42,36,47,38,39,39,43,37,49,38,39,39,42,37,49,39,39,39,41,37,48,39,39,39,41,38,47,39,39,39,41,38,45,38,39,39,40,38,44,38,39,39,39,38,42,38,39,39,38,39,39,38,39,39,39,39,36,38,39,39,38,39,34,38,39,39,37,40,33,38,39,39,37,40,33,38,39,39,37,40,32,38,39,39,36,40,33,38,39,39,37,39,35,39,39,39,38,39,36,39,39,39,38,39,37,39,39,39,38,39,38,39,39,39,39,39,38,39,39,39,39,39,39,39,39,39,39,39,39,down
41,37,38,29,46,1,40,38,38,33,42,16,40,38,38,34,41,23,40,38,38,34,41,28,40,38,38,35,40,24,39,39,38,39,38,39,39,38,38,41,37,44,39,38,39,40,37,48,38,39,39,41,36,47,38,39,39,43,36,47,38,38,39,42,37,48,39,38,39,41,38,47,39,39,39,42,38,46,39,39,39,42,38,44,39,39,39,40,38,44,38,39,39,38,38,43,38,39,39,38,38,42,38,39,39,38,38,39,38,39,39,39,39,37,38,39,39,39,39,35,38,39,39,38,39,34,38,39,39,37,39,33,38,39,39,36,39,34,38,39,39,37,39,34,38,39,39,37,39,34,38,39,39,38,39,36,39,39,39,38,39,37,39,39,39,39,39,37,39,39,39,38,39,38,39,39,39,38,39,39,down
41,37,38,31,44,0,40,38,38,35,42,17,40,38,38,33,42,24,40,38,38,33,41,28,40,38,38,35,40,23,39,39,38,39,38,40,39,38,39,41,37,46,39,39,39,40,37,49,38,39,39,42,36,47,38,38,39,43,37,48,38,38,39,41,37,50,39,39,39,40,38,48,39,39,39,42,37,44,39,39,39,41,38,43,38,39,39,39,38,43,38,39,39,39,39,42,38,39,39,39,39,39,38,39,39,38,39,37,38,39,39,38,39,36,38,39,39,38,39,34,38,39,39,37,39,33,38,39,39,36,39,33,38,39,39,37,39,34,38,39,39,37,39,34,39,39,39,37,39,34,39,39,39,37,39,37,39,39,39,39,39,38,39,39,39,39,39,38,39,39,39,39,38,38,39,39,39,39,39,39,down
41,37,38,31,45,0,40,38,38,34,42,16,40,38,38,34,42,23,40,38,38,33,41,27,40,38,38,35,40,23,39,39,39,39,39,40,39,39,39,41,38,45,39,39,39,41,37,48,39,39,39,43,37,48,39,39,39,43,37,49,39,39,39,42,37,50,39,39,39,41,37,48,39,39,39,42,38,46,39,39,39,41,38,45,39,39,39,40,38,45,39,39,39,40,38,43,38,39,39,39,39,41,38,39,39,39,39,38,38,39,39,38,39,35,38,39,39,37,40,34,38,39,39,37,40,34,38,39,39,37,40,32,38,39,39,37,40,34,39,39,39,37,40,34,39,39,39,38,39,35,39,39,39,38,39,36,39,39,39,39,39,37,39,39,39,39,39,38,39,39,39,39,39,39,39,39,39,40,39,39,down
41,37,38,27,46,0,40,38,38,33,43,15,40,39,38,35,42,21,40,39,38,36,41,26,40,39,39,35,41,25,39,39,39,39,39,40,39,39,39,41,38,44,39,39,39,41,37,48,39,39,39,41,37,50,39,39,39,44,36,49,39,39,39,44,37,50,39,39,39,41,37,51,39,39,39,41,37,47,39,39,39,42,38,45,39,39,39,40,38,44,38,39,39,39,39,42,38,39,39,39,39,38,38,39,39,38,39,35,38,39,39,37,40,33,38,39,39,36,40,32,38,39,39,36,40,32,39,39,39,37,40,33,39,39,39,38,39,34,39,39,39,38,39,36,39,39,39,39,39,38,39,39,39,39,39,38,39,39,39,39,39,39,39,39,39,39,39,39,39,39,39,39,39,40,39,39,39,39,39,39,down
41,38,38,30,45,2,40,38,38,35,42,18,40,38,38,36,42,25,40,38,39,35,41,29,40,39,39,36,40,25,39,39,39,39,39,39,39,39,39,41,38,44,39,39,39,40,37,47,39,39,39,42,37,47,39,39,39,43,37,47,39,39,39,42,37,49,39,39,39,40,38,50,39,39,39,41,38,46,39,39,39,42,38,45,39,39,39,40,38,44,39,39,39,39,39,43,38,39,39,40,39,39,38,39,39,38,39,36,38,39,39,37,40,35,38,39,39,37,40,33,38,39,39,37,40,32,38,39,39,37,40,33,39,39,39,38,39,34,39,39,39,38,39,35,39,39,39,39,39,36,39,39,39,38,39,37,39,39,39,39,39,38,39,39,39,39,39,39,39,39,39,39,39,39,39,39,39,39,39,39,down
41,38,38,37,42,2,40,38,38,37,42,20,40,38,38,36,41,26,40,38,39,35,40,29,40,39,39,36,40,25,39,39,39,38,39,40,39,39,39,39,38,44,39,39,39,40,38,46,39,39,39,42,37,46,39,39,39,42,37,47,39,39,39,42,37,49,39,39,39,41,37,49,39,39,39,41,38,46,39,39,39,41,38,45,39,39,39,40,38,45,39,39,39,40,38,43,38,39,39,39,39,40,38,39,39,38,39,37,38,39,39,38,39,35,38,39,39,37,40,34,38,39,39,36,40,33,38,39,39,37,40,33,39,39,39,37,40,34,39,39,39,37,40,35,39,39,39,38,39,36,39,39,39,39,39,37,39,39,39,39,39,38,39,39,39,39,39,38,39,39,39,39,39,39,39,39,39,39,39,39,down
40,37,38,25,46,1,40,38,38,29,43,16,40,38,38,36,42,21,40,38,38,36,41,26,40,39,39,36,41,25,39,39,39,41,38,42,39,39,39,43,37,46,39,39,39,40,37,48,39,39,39,41,36,49,39,39,39,42,36,49,39,39,39,40,37,48,39,39,39,40,37,46,39,39,39,40,38,45,39,39,39,41,38,45,39,39,39,42,38,44,39,39,39,41,39,43,38,39,39,40,39,41,38,39,39,40,39,37,38,39,39,38,39,35,38,39,39,36,40,34,38,39,39,36,40,33,38,39,39,37,40,33,39,39,39,37,40,34,39,39,39,37,40,35,39,39,39,39,39,36,39,39,39,38,39,38,39,39,39,39,39,38,39,39,39,39,39,39,39,39,39,39,39,39,39,39,39,39,39,39,down
41,38,38,35,46,4,40,38,38,31,44,21,40,38,38,33,42,26,40,38,38,35,41,29,40,38,39,36,40,25,39,39,39,38,38,41,39,39,39,42,37,43,39,39,39,42,37,46,39,39,39,42,36,47,39,39,39,43,36,48,39,39,39,42,37,50,39,39,39,40,37,49,39,39,39,41,38,46,39,39,39,41,38,45,39,39,39,40,38,43,38,39,39,39,38,41,38,39,39,39,39,38,38,39,39,39,39,36,38,39,39,38,40,34,38,39,39,37,40,34,38,39,39,37,40,33,39,39,39,37,40,33,39,39,39,37,40,35,39,39,39,38,39,36,39,39,39,38,39,37,39,39,39,39,39,38,39,39,39,39,39,38,39,39,39,39,39,39,39,39,39,39,39,39,39,39,39,39,39,39,down
41,38,38,31,46,0,40,38,38,33,43,16,40,39,38,37,42,24,40,38,39,36,42,29,40,39,39,35,41,26,39,39,39,39,38,41,39,39,39,41,37,44,39,39,39,40,37,48,39,39,39,41,36,48,39,39,39,44,36,47,39,39,39,43,37,49,39,39,39,41,37,50,39,39,39,41,38,47,39,39,39,41,38,45,39,39,39,40,38,44,38,39,39,39,38,41,38,39,39,39,39,37,38,39,39,38,40,35,38,39,39,37,40,34,38,39,39,37,41,33,38,39,39,37,40,33,39,39,39,37,40,34,39,39,39,37,39,35,39,39,39,38,39,36,39,39,39,38,39,37,39,39,39,38,39,38,39,39,39,39,39,38,39,39,39,39,39,38,39,39,39,39,39,39,39,39,39,39,39,39,down
41,38,38,30,49,0,40,38,38,35,44,18,40,38,38,35,43,25,40,38,39,34,42,29,40,39,39,35,41,25,39,39,39,39,38,41,39,39,39,40,37,45,39,39,39,41,36,47,39,39,39,43,36,47,39,39,39,44,37,48,39,39,39,42,37,50,39,39,39,41,37,49,39,39,39,41,37,46,39,39,39,40,38,45,39,39,39,40,38,44,38,39,39,39,39,41,38,39,39,37,40,39,38,39,39,38,40,36,38,39,39,39,40,33,38,39,39,37,40,32,38,39,39,36,40,34,39,39,39,38,39,33,39,39,39,39,39,33,39,39,39,37,39,36,39,39,39,38,39,37,39,39,39,40,39,38,39,39,39,39,39,38,39,39,39,39,39,39,39,39,39,39,39,39,39,39,39,39,39,39,down
41,38,39,32,45,0,41,39,39,34,43,17,41,39,39,35,42,25,40,39,39,36,42,29,40,39,39,35,41,26,40,39,39,39,39,41,40,39,39,41,38,45,39,39,39,41,38,47,39,39,39,41,37,48,39,39,39,44,37,48,39,39,39,43,37,50,39,39,39,42,38,50,39,39,39,42,38,48,39,39,39,43,38,47,39,39,39,42,39,44,39,39,39,40,39,41,39,39,39,40,40,37,39,39,39,38,40,35,39,39,39,37,40,33,39,39,39,36,41,32,39,39,39,36,41,33,39,40,39,37,40,34,39,40,39,38,40,36,39,39,39,39,39,37,39,39,39,39,39,38,39,39,39,39,39,39,39,39,39,39,39,39,39,39,39,39,39,39,39,39,39,39,39,39,39,39,39,39,39,39,down
41,38,38,27,49,3,41,39,39,32,44,17,41,39,39,35,43,23,40,39,39,35,42,27,40,39,39,36,41,25,40,39,39,40,38,40,40,39,39,42,37,45,39,39,39,41,37,49,39,39,39,42,37,51,39,39,39,45,36,51,39,39,39,43,37,53,39,39,39,41,38,51,39,39,39,42,38,47,39,39,39,42,38,45,39,39,39,41,39,44,39,39,39,40,39,40,39,39,39,39,40,36,39,39,39,38,41,34,39,39,39,37,41,33,39,39,39,36,41,32,39,39,39,37,41,33,39,39,39,38,40,34,39,39,39,38,40,36,39,39,39,39,39,37,39,39,39,39,39,37,39,39,39,39,39,39,39,39,39,39,39,39,39,39,39,40,39,39,39,39,39,39,39,40,39,39,39,40,39,39,down
41,38,38,27,48,2,41,39,39,34,44,16,41,39,39,34,43,23,40,39,39,35,42,27,40,39,39,36,41,24,40,39,39,40,38,39,40,39,39,42,38,47,39,39,39,41,37,50,39,39,39,43,37,49,39,39,39,44,37,51,39,39,39,43,37,55,39,39,39,41,38,51,39,39,39,43,38,46,39,39,39,42,38,44,39,39,39,40,39,44,39,39,39,40,39,40,39,39,39,40,40,37,38,39,39,38,40,34,39,39,39,37,41,33,39,39,39,36,41,32,39,39,39,37,40,33,39,39,39,37,40,33,39,39,39,38,40,35,39,40,39,39,39,37,39,39,39,39,39,38,39,39,39,39,39,39,39,39,39,39,39,39,39,39,39,39,39,39,39,39,39,39,39,40,39,39,39,39,39,39,down
41,38,39,24,46,3,41,39,39,31,43,15,41,39,39,35,42,21,41,39,39,35,42,26,40,39,39,35,41,25,40,39,39,40,39,39,40,39,39,42,38,44,39,39,39,42,38,49,39,39,39,42,37,51,39,39,39,45,37,51,39,39,39,44,38,53,39,39,39,42,38,51,39,39,39,43,37,48,39,39,39,42,38,46,39,39,39,40,38,45,39,39,39,40,39,42,39,39,39,39,39,38,38,39,39,37,40,36,38,39,39,37,41,33,39,39,39,37,41,32,39,39,39,37,41,32,39,39,39,37,40,33,39,40,39,38,40,34,39,40,39,39,39,36,39,39,39,39,39,38,39,39,39,39,39,39,39,39,39,39,39,39,39,39,39,39,39,40,39,39,39,39,39,40,39,39,39,39,39,39,down
42,39,38,26,43,0,41,39,39,32,42,17,41,39,39,32,41,23,40,39,39,35,41,27,40,39,39,37,40,24,40,39,39,41,39,42,39,39,39,42,38,47,39,39,39,43,38,48,39,39,39,43,38,49,39,39,39,43,38,52,39,39,39,43,38,52,39,39,39,42,39,50,39,39,39,43,39,46,39,39,39,42,39,45,39,39,39,41,39,43,39,39,39,40,39,41,39,39,39,39,40,37,39,39,40,37,40,35,39,39,40,37,40,33,39,39,39,36,40,32,39,39,39,37,40,33,39,39,39,37,40,34,39,39,39,38,39,35,39,39,39,38,39,36,39,39,39,39,39,38,39,39,39,39,39,39,39,39,39,39,39,39,39,39,39,39,39,40,39,39,39,39,39,39,39,39,39,39,39,40,down
41,38,38,26,43,3,41,39,39,31,42,17,41,39,39,34,41,23,40,39,39,35,41,28,40,39,39,35,40,25,40,39,39,40,39,39,40,39,39,42,38,44,39,39,39,42,38,48,39,39,39,43,38,50,39,39,39,45,38,50,39,39,39,43,38,52,39,39,39,42,38,52,39,39,39,43,38,49,39,39,39,42,39,46,39,39,39,41,39,44,39,39,39,41,39,41,39,39,39,39,40,38,39,39,39,38,40,36,39,39,39,37,40,33,39,39,39,36,40,32,39,39,39,36,40,33,39,39,39,37,40,33,39,39,39,37,40,34,39,40,39,39,39,35,39,39,39,39,39,37,39,39,39,39,39,39,39,39,39,39,39,39,39,39,39,40,39,39,39,39,39,39,39,40,39,39,39,40,39,39,down
41,38,38,30,45,2,41,39,39,33,42,18,41,39,39,35,41,25,40,39,39,35,41,29,40,39,39,36,40,24,40,39,39,39,39,39,40,39,39,42,38,43,39,39,39,42,38,47,39,39,39,43,38,48,39,39,39,43,38,48,39,39,39,42,38,50,39,39,39,41,38,51,39,39,39,41,38,48,39,39,39,42,38,46,39,39,39,41,39,45,39,39,39,41,39,44,39,39,39,40,39,40,39,39,39,39,40,37,39,39,39,38,40,35,39,39,39,37,40,33,39,39,39,36,40,33,39,39,39,37,40,33,39,40,39,38,40,34,39,40,39,38,39,36,39,39,39,39,39,38,39,39,39,39,39,38,39,39,39,39,39,39,39,39,39,39,39,39,39,39,39,39,39,39,39,39,39,39,39,39,down
41,38,38,30,43,4,41,39,39,33,43,19,41,39,39,34,41,24,40,39,39,35,41,28,40,39,39,37,40,26,40,39,39,40,39,41,39,39,39,42,38,45,39,39,39,42,38,48,39,39,39,42,38,50,39,39,39,43,38,50,39,39,39,43,38,50,39,39,39,42,38,49,39,39,39,42,38,47,39,39,39,41,38,45,39,39,39,40,39,43,39,39,39,40,39,41,39,39,39,39,40,38,39,39,39,38,40,35,39,39,39,38,41,33,39,39,39,37,41,33,39,39,39,37,40,34,39,39,39,37,40,35,39,39,39,39,40,36,39,39,39,39,39,38,39,39,39,40,39,38,39,39,39,39,39,39,39,39,39,40,39,38,39,39,39,39,39,39,39,39,39,39,39,39,39,39,39,39,39,39,down
42,38,38,32,44,2,41,39,39,35,43,19,40,39,39,34,42,26,40,39,39,35,41,30,40,39,39,37,41,25,40,39,39,39,39,41,39,39,39,40,38,46,39,39,39,42,38,47,39,39,39,43,37,47,39,39,39,43,37,50,39,39,39,42,37,50,39,39,39,42,38,49,39,39,39,42,38,46,39,39,39,41,38,45,39,39,39,40,39,43,39,39,39,40,39,40,39,39,39,38,40,37,39,39,39,38,40,35,39,39,39,38,40,34,39,39,39,38,40,34,39,39,39,37,40,34,39,39,39,38,40,35,39,39,39,38,40,36,39,39,39,39,39,38,39,39,39,39,39,38,39,39,39,39,39,39,39,39,39,39,39,39,39,39,39,39,39,39,39,39,39,39,39,40,39,39,39,39,39,40,down
41,37,39,28,46,5,41,38,39,32,42,17,41,39,39,36,41,24,40,39,39,37,41,28,40,39,39,36,40,27,40,39,39,40,39,39,39,39,39,42,38,44,39,39,39,41,38,47,39,39,39,42,38,50,39,39,39,44,38,50,39,39,39,42,38,51,39,39,39,42,38,51,39,39,39,43,38,48,39,39,39,42,39,46,39,39,39,42,39,43,39,39,39,40,39,39,39,39,39,38,40,37,39,39,39,38,40,34,39,39,39,36,40,33,39,39,39,36,40,33,39,39,39,37,40,34,39,39,39,38,40,35,39,39,39,38,40,36,39,39,39,39,40,37,39,39,39,39,40,38,39,39,39,39,39,39,39,39,39,39,39,39,39,39,39,39,39,39,39,39,39,39,39,39,39,39,39,39,39,40,down
41,37,39,32,42,6,40,38,39,32,42,18,41,39,39,35,42,22,40,39,39,36,41,26,40,39,39,36,41,25,40,39,39,39,40,38,40,39,39,42,39,43,39,39,39,41,38,48,39,39,39,41,37,50,39,39,39,44,37,50,39,39,39,43,38,52,39,39,39,41,38,50,39,39,39,42,38,47,39,39,39,42,38,45,39,39,39,41,38,44,39,39,39,40,38,43,39,39,39,39,39,40,39,39,39,39,40,37,39,39,39,39,40,34,39,39,39,37,40,34,39,39,39,37,41,34,39,39,39,38,41,34,39,39,39,37,40,34,39,39,39,38,40,37,39,39,39,39,40,37,39,39,39,39,39,38,39,39,39,39,39,39,39,39,39,39,39,39,39,39,39,39,39,39,39,39,39,39,39,39,down
41,38,38,28,45,3,41,39,39,32,42,17,40,39,39,35,42,23,40,39,39,35,41,27,40,39,39,36,41,25,40,39,39,40,39,40,39,39,39,42,38,45,39,39,39,41,37,48,39,39,39,43,37,49,39,39,39,44,37,50,39,39,39,42,38,51,39,39,39,42,38,49,39,39,39,43,38,46,39,39,39,41,38,45,39,39,39,40,38,45,39,39,39,40,39,43,39,39,39,39,39,40,39,39,39,39,40,37,39,39,39,39,40,35,39,39,39,37,40,34,39,39,39,37,41,33,39,39,39,37,41,33,39,39,39,37,40,34,39,39,39,37,40,36,39,39,39,39,40,37,39,39,39,39,39,38,39,39,39,39,39,39,39,39,39,40,39,40,39,39,39,39,39,39,39,39,39,39,39,39,down
41,38,38,30,47,3,41,39,39,31,44,18,40,39,39,35,42,24,40,39,39,35,42,28,40,39,39,36,41,24,40,39,39,39,39,40,40,39,39,41,38,44,39,39,39,42,37,49,39,39,39,43,37,49,39,39,39,44,37,49,39,39,39,43,38,52,39,39,39,43,38,50,39,39,39,42,38,47,39,39,39,42,38,44,39,39,39,40,38,44,39,39,39,39,39,42,39,39,39,39,39,39,39,39,39,39,40,36,39,39,39,38,40,35,39,39,39,38,41,33,39,39,39,37,41,33,39,39,39,37,41,33,39,39,39,37,40,34,39,40,39,38,40,35,39,39,39,39,39,37,39,39,39,39,39,38,39,39,39,40,39,39,39,39,39,40,39,40,39,39,39,40,39,39,39,39,39,39,39,40,down
41,38,38,32,46,2,41,39,39,32,43,19,40,39,39,34,42,24,40,39,39,35,41,28,40,39,39,36,41,24,40,39,39,39,39,41,39,39,39,43,38,44,39,39,39,42,37,48,39,39,39,42,37,49,39,39,39,43,37,50,39,39,39,43,38,50,39,39,39,41,38,50,39,39,39,43,38,46,39,39,39,42,38,44,39,39,39,41,38,43,39,39,39,40,39,42,39,39,39,39,39,40,39,39,39,38,40,38,39,39,39,38,40,35,39,39,39,37,40,34,39,39,39,37,41,34,39,39,39,37,40,34,39,39,39,38,40,34,39,39,39,38,40,35,39,39,39,39,39,37,39,39,39,39,39,38,39,39,39,39,39,39,39,39,39,39,39,40,39,39,39,39,39,40,39,39,39,39,39,40,down
41,38,39,27,48,0,41,39,39,32,44,16,41,39,39,36,43,23,41,39,39,36,42,28,40,39,39,36,41,26,40,40,39,41,39,43,40,39,39,42,38,47,39,39,39,41,37,49,39,39,40,43,37,49,39,39,39,44,37,50,39,39,39,42,38,50,40,40,39,42,38,48,40,40,39,42,38,46,39,40,39,41,38,46,39,40,40,40,39,44,39,40,40,41,39,41,39,40,40,40,40,37,39,39,40,39,41,36,39,39,40,39,41,34,39,39,40,38,41,33,39,40,40,37,41,33,39,40,40,36,41,34,39,40,40,39,40,36,39,40,40,38,40,36,39,40,40,39,39,38,39,40,39,40,39,40,39,39,39,40,39,39,39,39,39,39,39,40,39,40,39,40,39,40,39,39,39,39,40,39,down
41,38,39,30,47,5,41,39,39,32,44,17,41,39,39,34,42,22,41,39,39,35,42,25,41,39,39,36,41,24,40,40,39,41,39,40,40,40,39,43,38,46,39,40,40,41,38,50,39,40,40,44,37,49,39,39,40,45,37,52,39,39,39,42,38,52,40,39,39,41,38,50,40,39,39,43,38,45,40,39,39,42,38,45,39,40,40,40,38,45,39,40,40,40,39,43,39,40,40,40,39,40,39,40,40,39,40,37,39,40,40,38,40,35,39,40,40,38,41,34,39,40,40,37,41,33,39,40,40,37,41,34,39,40,40,37,41,34,39,40,40,38,40,36,39,40,40,39,40,37,39,40,39,39,40,38,39,40,39,39,39,39,39,40,39,40,39,39,39,39,39,40,39,40,39,39,39,40,40,40,down
42,38,39,28,47,3,41,39,39,33,44,18,41,39,39,34,42,24,41,39,39,35,42,28,40,39,39,37,41,25,40,39,39,41,39,41,40,39,39,42,38,46,39,40,40,42,38,49,39,40,40,43,37,48,39,39,39,43,38,50,39,39,39,42,38,50,40,39,39,42,38,48,40,39,39,43,38,45,40,39,39,41,38,44,39,40,40,40,39,44,39,40,40,40,39,42,39,40,40,39,40,39,39,40,40,39,40,37,39,40,40,38,41,35,39,40,40,38,41,34,39,40,40,37,41,34,39,40,40,37,41,35,39,40,40,38,40,36,39,40,40,39,40,36,39,40,40,39,40,38,39,40,39,39,40,39,39,40,39,39,39,39,39,40,39,40,39,39,39,39,39,40,39,40,39,39,39,40,39,40,down
41,38,39,30,49,6,41,39,39,31,44,19,41,39,39,35,43,24,40,39,39,36,42,28,40,39,39,37,41,27,40,40,39,42,38,42,40,39,39,43,38,47,39,39,40,41,37,49,39,39,40,42,37,48,39,39,39,44,37,50,39,39,39,41,38,49,40,40,39,41,38,47,40,39,39,43,38,43,39,40,39,41,39,43,39,40,40,40,39,44,39,40,40,40,39,42,39,40,40,40,40,40,39,40,40,39,40,39,39,39,40,38,41,37,39,40,40,39,41,35,39,39,40,38,41,34,39,39,40,37,41,35,39,40,40,38,41,35,39,40,40,39,40,34,39,40,40,38,40,36,39,40,40,38,40,38,39,40,40,40,39,38,39,40,39,39,39,39,39,40,39,40,39,39,39,39,39,39,39,40,down
41,38,39,32,49,2,41,39,39,33,45,19,41,39,39,38,43,25,41,39,39,36,43,30,40,39,39,35,42,26,40,40,39,38,39,40,40,39,39,41,38,42,39,39,39,39,37,47,39,40,39,42,37,48,39,39,39,44,37,46,39,39,39,44,38,49,39,39,39,43,38,50,40,39,39,42,39,49,40,39,39,42,38,46,39,40,40,42,38,45,39,40,40,40,39,43,39,40,40,40,39,42,39,40,40,39,39,39,39,40,40,39,40,37,39,40,40,38,40,36,39,40,40,38,40,34,39,40,40,38,41,36,39,40,40,38,41,35,39,40,40,38,41,35,39,40,40,38,40,37,39,40,40,39,40,37,39,40,40,39,40,38,39,40,39,39,39,38,39,40,39,39,40,39,39,40,39,39,39,39,down
41,38,39,26,47,3,41,39,39,34,44,17,41,39,39,34,43,24,41,39,39,35,43,28,40,39,39,37,41,26,40,40,39,41,39,40,40,39,39,42,38,45,40,40,40,42,37,48,39,39,39,43,37,49,39,39,39,43,37,49,39,39,39,42,37,50,40,39,39,41,38,49,40,39,39,42,38,47,40,40,39,42,38,45,39,40,40,41,39,44,39,40,40,40,39,43,39,40,40,40,39,40,39,40,40,40,40,38,39,40,40,39,40,36,39,39,40,38,40,34,39,39,40,37,41,33,39,39,40,37,41,34,39,40,40,37,41,34,39,40,40,38,40,35,39,40,40,39,40,37,39,40,40,39,40,39,39,40,39,40,39,39,39,40,39,39,39,40,39,39,39,40,39,40,39,39,39,40,39,40,down
41,38,39,26,47,3,41,39,39,32,44,15,41,39,39,39,42,22,41,39,39,39,42,28,40,39,39,35,42,28,40,40,39,39,39,41,40,40,39,42,38,45,39,39,39,39,38,48,39,40,40,40,37,51,39,39,39,45,37,48,39,39,39,44,38,47,40,39,39,41,38,48,40,40,39,42,38,47,40,40,39,43,38,46,39,40,40,42,38,45,39,40,40,40,38,44,39,40,40,40,39,41,39,39,40,39,40,38,39,39,40,38,40,35,39,39,40,37,41,34,39,39,40,37,41,32,39,40,40,37,41,33,39,40,40,38,41,34,39,40,40,38,40,35,39,40,40,39,40,37,39,40,40,39,39,39,39,40,39,40,39,39,39,39,39,40,39,40,39,39,39,40,39,40,39,39,39,39,39,40,down
42,39,39,34,48,5,41,39,39,34,45,21,41,39,39,35,43,27,40,39,39,35,42,30,40,39,39,36,41,26,40,39,39,39,39,40,40,39,39,41,38,44,40,39,39,42,38,47,39,39,39,43,37,48,39,39,39,44,38,48,39,39,39,43,38,50,39,39,39,42,38,50,40,40,39,42,38,47,40,40,39,42,39,45,39,40,40,41,39,45,39,40,40,41,39,43,39,40,40,40,39,40,39,40,40,39,40,38,39,40,40,39,40,36,39,39,40,38,40,35,39,39,40,37,40,34,39,40,40,37,40,34,39,40,40,38,40,34,39,40,40,38,40,36,39,40,40,39,40,36,39,40,40,39,40,38,39,40,40,39,39,39,39,39,39,39,40,40,39,39,39,40,40,40,39,39,39,40,40,40,down
41,39,38,31,43,2,41,39,39,36,41,18,41,39,39,37,42,25,40,39,39,37,42,29,40,39,39,37,41,25,40,39,39,40,40,39,40,39,39,40,39,44,40,39,39,41,38,47,39,39,40,41,38,48,39,39,39,42,38,47,39,39,39,42,38,49,39,39,39,42,38,50,40,39,39,42,38,48,40,39,39,42,38,46,39,40,39,41,39,45,39,40,40,40,39,44,39,40,40,40,39,42,39,40,40,40,40,40,39,40,40,39,40,37,39,40,40,40,40,35,39,39,40,38,40,34,39,39,40,38,41,34,39,40,40,37,40,34,39,40,40,38,40,35,39,40,40,38,40,36,39,40,40,39,40,37,39,40,39,39,39,38,39,40,39,40,39,40,39,39,39,40,40,40,39,39,39,40,39,40,down
42,39,39,34,46,5,41,39,39,35,44,20,41,39,39,34,42,26,41,39,39,36,41,29,40,39,39,37,41,26,40,39,39,39,39,41,40,40,39,41,38,45,39,39,39,42,38,47,39,39,39,42,38,48,39,39,39,43,38,49,39,39,39,43,38,49,40,39,39,41,38,48,40,39,39,42,38,46,39,40,39,41,38,45,39,40,40,41,39,44,39,40,40,40,39,42,39,40,40,40,39,40,39,40,40,40,40,38,39,40,40,39,40,36,39,40,40,38,40,36,39,40,40,38,40,35,39,40,40,37,41,35,39,40,40,37,40,36,39,40,40,38,40,36,39,40,40,38,40,36,39,40,40,39,40,38,39,40,39,40,40,38,39,40,39,40,39,39,39,40,39,40,39,39,40,40,39,40,39,39,down
41,38,39,27,46,4,41,39,39,33,44,18,41,39,39,34,43,24,41,39,39,35,42,28,40,39,39,36,41,25,40,39,39,40,39,40,40,39,39,42,38,45,39,39,39,41,38,48,39,40,40,42,37,48,39,39,39,44,37,49,39,39,39,43,38,51,40,39,39,41,38,49,40,39,39,43,38,47,40,39,39,42,38,45,39,40,40,41,39,46,39,40,40,40,39,43,39,40,40,40,40,41,39,40,40,39,40,38,39,40,40,39,40,36,39,39,40,38,41,34,39,39,40,37,41,34,39,40,40,37,41,34,39,40,40,37,40,34,39,40,40,38,40,35,39,40,40,39,40,37,39,40,39,39,39,38,39,40,39,39,39,39,39,40,39,40,39,39,39,39,39,39,40,40,39,39,39,40,40,40,down
42,38,39,25,46,5,41,39,39,33,43,19,41,39,39,34,42,25,41,39,39,35,41,28,40,39,39,37,41,26,40,39,39,41,39,40,40,39,39,42,38,45,39,39,39,42,38,48,39,39,39,43,38,48,39,39,40,43,38,50,39,39,39,43,38,50,40,39,39,42,38,49,40,39,39,42,38,47,40,40,39,42,38,45,39,40,40,41,39,44,39,40,40,40,39,42,39,40,40,39,40,40,39,40,40,39,40,37,39,40,40,38,40,35,39,40,40,38,41,35,39,40,40,38,41,34,39,40,40,38,40,35,39,40,40,38,40,35,39,40,40,38,40,36,39,40,40,39,40,37,39,40,39,39,40,38,39,40,39,39,40,39,39,40,39,39,40,39,39,40,39,40,39,39,39,39,39,39,40,40,down
42,38,39,28,45,5,41,39,39,34,43,19,41,39,39,35,42,24,41,39,39,36,41,29,40,39,39,37,41,26,40,39,39,40,39,40,40,39,39,41,38,44,40,39,39,42,38,48,39,39,39,42,38,48,39,39,39,43,38,48,39,39,39,43,38,50,40,39,39,42,38,50,40,40,39,42,38,48,40,40,39,42,38,46,39,40,40,41,39,45,39,40,40,40,39,43,39,40,40,40,39,40,39,39,40,39,40,37,39,39,40,38,40,35,39,39,40,37,41,33,39,40,40,37,41,33,39,40,40,37,40,34,39,40,40,38,40,35,39,40,40,39,40,36,39,40,39,39,40,37,39,40,39,39,39,38,39,40,39,39,40,39,40,40,39,40,40,39,39,39,39,39,39,40,39,39,39,39,40,39,down
42,39,39,36,44,4,41,39,39,35,43,20,41,39,39,34,42,25,41,39,39,36,41,29,40,39,39,37,41,25,40,39,39,39,39,41,40,39,39,41,38,45,39,39,39,42,38,47,39,40,40,42,38,48,39,39,39,43,38,48,39,39,39,42,38,50,40,39,39,42,38,49,40,39,39,42,38,47,40,40,39,42,38,46,39,40,40,41,39,45,39,40,40,41,39,44,39,40,40,39,39,41,39,40,40,39,40,38,39,39,40,39,40,35,39,39,40,37,41,34,39,39,40,37,41,33,39,40,40,37,41,34,39,40,40,37,41,34,39,40,40,38,40,36,39,40,40,39,40,36,39,40,39,39,39,38,39,40,39,40,39,39,39,39,39,40,39,39,39,39,39,40,39,40,39,39,39,40,40,40,down
42,38,39,28,44,8,41,39,39,33,42,21,41,39,39,34,42,26,41,39,39,35,41,28,40,39,39,37,41,26,40,39,39,40,39,40,40,39,39,42,39,45,40,39,39,42,38,47,39,39,40,43,38,47,39,39,40,43,37,49,39,39,39,42,38,51,40,39,39,42,38,49,40,39,39,42,38,46,40,40,39,42,39,46,39,40,39,41,39,45,39,40,40,40,39,43,39,40,40,40,39,40,39,40,40,39,40,38,39,39,40,39,40,35,39,39,40,38,41,34,39,39,40,37,41,34,39,40,40,37,40,34,39,40,40,38,40,34,39,40,40,38,40,35,39,40,40,39,40,37,39,40,39,39,40,38,39,40,39,39,40,39,39,40,39,39,39,39,39,39,39,39,40,40,39,39,39,40,40,39,down
41,38,39,26,46,4,41,39,39,34,43,18,41,39,39,36,43,24,41,39,39,34,42,28,41,39,39,36,41,25,40,40,39,41,39,38,40,39,39,42,38,46,39,40,40,40,38,50,39,40,40,43,37,48,39,39,39,45,37,50,39,39,39,42,38,53,40,39,39,40,38,51,40,39,39,43,38,46,40,39,39,42,39,44,39,40,40,40,39,44,39,40,40,41,39,42,39,40,40,40,39,40,39,40,40,39,40,38,39,40,40,39,40,36,39,39,40,38,40,34,39,39,40,37,41,34,39,40,40,37,41,34,39,40,40,36,41,34,39,40,40,38,40,35,39,40,40,39,40,36,39,40,39,39,39,38,39,40,39,40,39,39,39,40,39,41,39,39,39,39,39,39,40,40,39,39,39,40,39,39,down
42,38,39,29,46,4,41,39,39,32,43,18,41,39,39,34,42,24,41,39,39,37,42,28,40,39,39,36,41,26,40,40,39,39,39,40,40,40,39,42,38,45,39,39,39,42,38,48,39,39,39,41,38,50,39,39,39,44,37,49,39,39,39,43,38,51,40,39,39,42,38,50,40,39,39,42,38,46,39,39,39,41,39,44,39,40,40,40,39,43,39,40,40,40,39,41,39,40,40,40,40,38,39,40,40,38,40,36,39,40,40,39,40,35,39,40,40,38,40,35,39,40,40,38,40,35,39,40,40,38,40,36,39,40,40,38,40,36,39,40,40,38,40,37,39,40,39,39,40,37,39,40,39,39,40,38,39,40,39,39,40,39,39,40,39,40,40,39,39,39,39,39,40,40,39,39,39,40,39,39,down
41,38,39,30,49,3,41,39,39,33,45,18,41,39,39,35,43,24,41,39,39,36,42,28,40,39,39,37,41,27,40,40,39,40,38,43,40,39,39,41,37,46,39,39,40,42,37,48,39,39,40,43,37,49,39,39,39,43,37,50,39,39,39,42,38,50,40,39,39,42,38,47,40,40,39,42,39,45,39,40,40,41,39,45,39,40,40,41,39,43,39,40,40,40,39,41,39,40,40,40,39,38,39,39,40,39,40,36,39,39,40,38,40,34,39,39,40,37,41,33,39,40,40,37,41,34,39,40,40,37,41,34,39,40,40,38,40,35,39,40,40,39,40,37,39,40,40,39,39,39,39,40,39,40,39,39,39,39,39,40,39,40,39,39,39,40,39,39,39,39,39,39,40,40,39,39,39,40,40,39,down
41,38,39,33,45,3,41,39,39,33,43,19,41,39,39,34,43,25,41,39,39,36,42,28,40,39,39,37,41,25,40,40,39,40,39,42,40,39,39,42,38,46,39,40,39,42,37,48,39,39,39,43,37,49,39,39,39,43,37,50,39,39,39,42,38,51,40,39,39,42,38,49,40,39,39,42,38,46,39,40,39,41,39,44,39,40,40,40,39,43,39,40,40,40,39,40,39,40,40,39,40,38,39,40,40,39,40,36,39,40,40,39,40,34,39,40,40,38,41,34,39,40,40,37,41,35,39,40,40,38,40,35,39,40,40,38,40,36,39,40,40,39,40,37,39,40,40,39,39,38,39,40,39,39,39,39,39,40,39,39,39,39,39,40,39,40,40,39,39,39,39,39,40,40,39,39,39,40,40,39,down
41,38,39,30,49,4,41,39,39,30,45,17,41,39,39,34,43,21,41,39,39,36,42,25,41,39,39,38,41,27,40,39,39,44,38,45,40,40,40,40,37,49,39,40,40,42,37,48,39,39,39,44,36,51,39,39,39,42,37,53,39,39,39,38,38,51,40,40,39,44,38,44,39,39,39,42,39,43,39,40,40,40,39,44,39,40,40,40,39,42,39,40,40,40,40,40,39,40,40,39,40,37,39,39,40,39,40,35,39,39,40,38,41,35,39,40,40,37,41,34,39,40,40,37,41,34,39,40,40,38,40,35,39,40,40,38,40,36,39,40,39,39,40,37,39,40,39,40,40,38,39,40,39,40,39,39,39,40,39,40,39,40,39,39,39,40,39,40,39,39,39,39,39,40,39,39,39,39,39,40,down
41,38,39,26,45,3,41,39,39,30,43,16,41,39,39,34,42,22,41,39,39,35,42,26,40,39,39,37,41,26,40,40,39,43,39,42,40,40,39,43,38,47,39,40,40,42,38,50,39,39,40,44,37,51,39,39,39,44,37,53,39,39,39,40,38,52,40,40,39,42,38,48,40,39,39,43,38,45,39,40,40,41,39,45,39,40,40,41,39,43,39,40,40,40,39,40,39,39,40,39,40,37,39,39,40,38,40,35,39,39,40,37,41,32,39,39,40,36,41,33,39,40,40,37,41,32,39,40,40,37,40,34,39,40,40,38,40,35,39,40,40,39,40,38,39,40,39,40,40,39,40,40,39,40,40,40,39,39,39,40,40,40,39,39,39,40,40,40,39,39,39,39,40,40,40,39,39,40,40,39,down
41,38,39,26,44,7,41,39,39,30,42,18,41,39,39,34,41,21,41,39,39,34,41,25,41,39,39,36,41,26,40,40,39,42,39,42,40,40,39,43,39,46,39,40,40,42,38,49,39,40,40,44,38,51,39,39,40,45,37,54,39,39,39,42,38,53,40,39,39,43,38,48,40,39,39,44,38,46,39,39,39,42,38,45,39,40,40,41,38,43,39,39,40,39,39,40,39,39,40,37,40,37,39,39,40,37,41,34,39,40,40,36,41,33,39,40,40,36,41,34,39,40,40,39,41,33,39,40,40,38,41,34,39,40,40,39,40,37,39,40,40,39,39,39,40,40,39,40,39,38,39,39,39,39,39,40,39,39,39,40,39,39,39,39,39,39,39,40,39,39,39,40,40,40,39,39,39,39,40,39,down
42,38,39,29,46,5,41,39,39,32,43,21,41,39,39,32,42,25,41,39,39,35,41,28,40,39,39,38,41,25,40,39,39,40,39,42,40,40,39,42,38,45,39,40,39,44,38,46,39,39,39,43,38,49,39,39,40,43,38,51,39,39,39,43,38,51,40,39,39,43,38,49,40,39,39,44,38,47,39,39,40,42,38,46,39,40,40,40,39,43,39,40,40,39,39,40,39,39,40,37,40,37,39,39,40,36,41,35,39,40,40,37,41,33,39,40,40,38,41,33,39,40,40,38,40,35,39,40,40,38,40,35,39,40,40,39,40,36,39,40,40,39,40,38,39,39,39,39,40,39,39,40,39,39,40,39,39,40,39,40,39,39,39,40,39,39,40,39,39,39,39,40,40,39,39,39,39,39,39,40,down
41,38,39,26,47,7,41,39,39,31,44,17,41,39,39,35,42,22,41,39,39,37,42,26,40,39,39,37,41,27,40,40,39,41,39,40,40,40,39,43,38,45,39,39,39,41,38,49,39,39,40,42,37,50,39,39,40,44,37,51,39,39,39,42,38,51,40,39,39,42,38,49,40,39,39,44,38,45,39,39,39,42,38,45,39,40,40,41,38,44,39,40,40,40,39,41,39,39,40,39,40,39,39,39,40,38,40,35,39,39,40,38,41,34,39,40,40,37,41,33,39,40,40,37,41,34,39,40,40,38,41,34,39,40,40,38,40,35,39,40,40,38,40,38,39,40,40,39,39,39,39,40,39,40,39,39,39,39,39,39,39,40,39,39,39,40,39,39,39,39,39,39,39,40,39,39,39,40,39,40,down
41,38,39,26,48,6,41,39,39,31,44,17,41,39,39,35,42,22,41,39,39,36,42,28,40,39,39,37,41,27,40,40,39,41,38,41,40,40,39,43,38,44,39,39,40,41,38,49,39,40,40,43,37,50,39,39,39,43,37,50,39,39,39,43,38,50,40,39,39,42,38,49,40,39,39,43,38,46,39,40,39,42,38,45,39,40,40,41,38,44,39,40,40,38,39,42,39,40,40,38,40,39,39,39,40,39,41,36,39,39,40,38,41,33,39,40,40,36,41,35,39,40,40,39,41,33,39,40,40,39,40,32,39,40,40,37,40,35,39,40,40,39,40,37,39,40,40,40,39,37,39,39,39,39,39,39,39,40,39,39,39,39,39,39,39,40,39,40,39,39,39,40,39,40,39,39,39,40,40,39,down
41,38,39,31,46,5,41,39,39,31,44,19,41,39,39,33,42,23,41,39,39,36,41,27,40,39,39,37,41,26,40,40,39,38,39,41,40,40,39,42,38,43,39,39,39,43,38,47,39,39,39,42,38,50,39,39,40,43,38,51,39,39,39,44,38,50,40,39,39,43,38,51,40,39,39,42,38,49,40,40,39,42,38,46,39,40,40,41,38,44,39,39,40,40,39,42,39,39,40,39,40,38,39,39,40,37,41,36,39,39,40,35,41,35,39,40,40,38,41,33,39,40,40,38,41,33,39,40,40,38,40,34,39,40,40,40,40,37,39,40,40,41,39,36,39,39,39,38,39,38,39,40,39,39,40,39,39,39,39,40,40,39,39,40,39,39,40,39,39,39,39,40,40,39,39,39,39,39,39,40,down
41,38,39,27,46,4,41,39,39,33,43,18,41,39,39,34,42,23,41,39,39,35,42,27,40,39,39,36,41,26,40,40,39,39,39,39,40,40,39,42,38,44,39,39,39,43,38,48,39,39,40,42,38,51,39,39,39,44,37,50,39,39,39,44,38,50,40,39,39,41,38,50,40,39,39,43,38,47,40,39,39,43,38,46,39,40,40,41,38,45,39,40,40,41,38,43,39,40,40,40,39,41,39,40,40,38,40,38,39,39,40,38,41,35,39,39,40,37,41,33,39,39,40,36,41,33,39,40,40,37,41,33,39,40,40,38,40,34,39,40,40,38,40,36,39,40,40,39,39,37,39,40,40,39,39,38,39,39,39,39,39,39,39,40,39,40,39,40,39,39,39,40,39,40,39,39,39,39,40,40,down
41,38,39,27,47,3,41,39,39,30,44,18,41,39,39,35,42,24,41,39,39,36,42,28,40,39,39,36,41,26,40,40,39,41,38,41,40,39,39,43,38,45,39,39,39,41,38,49,39,40,40,43,37,49,39,39,39,44,37,50,39,39,39,43,38,51,40,39,39,42,38,49,40,39,39,43,38,46,40,40,40,42,38,46,39,40,40,42,38,44,39,40,40,40,39,42,39,40,40,39,39,39,39,40,40,39,40,37,39,39,40,38,41,35,39,39,40,37,41,34,39,39,40,37,41,34,39,40,40,37,41,34,39,40,40,38,41,34,39,40,40,38,40,35,39,40,40,39,40,37,39,40,39,39,39,38,39,40,39,40,39,39,39,39,39,39,39,40,39,39,39,40,39,40,39,39,39,39,39,40,down
41,38,39,27,48,3,41,39,39,31,44,17,41,39,39,33,43,22,41,39,39,35,42,26,41,39,39,36,41,25,40,40,39,40,39,39,40,40,39,43,38,44,39,39,39,43,38,49,39,39,39,43,37,50,39,39,40,45,37,50,39,39,39,44,38,52,40,39,39,42,38,51,40,39,39,42,38,47,40,40,39,42,38,46,39,40,40,41,38,45,39,40,40,41,39,42,39,39,40,40,39,39,39,39,40,38,40,36,39,39,40,38,41,35,39,39,40,36,41,32,39,40,40,36,41,33,39,40,40,38,41,34,39,40,40,38,40,35,39,40,40,39,40,37,39,40,40,39,39,38,39,40,39,39,40,38,39,40,39,39,40,40,39,40,39,40,39,39,39,39,39,40,39,40,39,39,39,40,39,40,down
41,38,39,32,49,1,41,39,39,34,45,17,41,39,39,34,43,23,41,39,39,34,42,28,40,39,39,36,41,26,40,40,39,39,39,40,40,40,39,41,38,43,39,39,39,43,38,47,39,39,39,44,38,50,39,39,39,44,38,50,39,39,39,44,38,51,40,39,39,43,38,52,40,40,39,43,38,51,40,40,40,43,38,48,39,40,40,42,38,45,39,39,40,41,39,41,39,39,40,39,40,37,39,39,40,37,41,35,39,39,40,37,41,32,39,40,40,36,41,32,39,40,40,37,41,33,39,40,40,37,41,34,39,40,40,38,40,36,39,40,40,39,40,38,39,40,39,40,39,38,39,39,39,39,39,39,39,40,39,40,39,39,39,39,39,39,39,39,39,39,39,39,39,40,39,39,39,40,39,40,down
41,38,39,27,47,2,41,39,39,32,44,16,41,39,39,33,43,23,41,39,39,35,42,27,41,39,39,36,41,25,40,40,39,40,39,40,40,40,39,42,38,47,39,39,39,42,37,49,39,40,40,43,37,51,39,39,39,45,37,52,39,39,39,43,38,53,40,39,39,42,38,50,40,39,39,43,38,47,39,39,39,42,38,45,39,40,40,41,39,43,39,39,40,40,39,39,39,39,40,39,40,36,39,39,40,37,40,35,39,39,40,37,41,33,39,40,40,36,41,33,39,40,40,37,41,34,39,40,40,38,41,35,39,40,40,39,40,36,39,40,40,39,40,37,39,40,39,39,39,39,39,40,39,40,39,39,39,39,39,39,39,40,39,39,39,40,39,40,39,39,39,39,40,39,39,39,39,39,39,40,down
41,38,39,29,47,4,41,39,39,32,43,18,41,39,39,35,42,25,40,39,39,35,42,29,40,39,39,35,41,26,40,40,39,39,39,39,40,39,39,42,38,44,39,39,39,42,38,47,39,39,39,42,38,49,39,39,39,45,38,49,39,39,39,44,37,52,40,39,39,42,38,52,40,40,39,43,38,49,39,40,39,43,38,46,39,40,40,41,39,44,39,39,40,40,39,41,39,39,40,39,40,38,39,39,40,38,40,35,39,39,40,37,41,33,39,40,40,37,41,33,39,40,40,37,41,33,39,40,40,38,40,34,39,40,40,38,40,36,39,40,40,39,40,37,39,40,39,39,40,39,39,40,39,40,40,39,39,39,39,40,40,40,39,39,39,39,39,40,39,39,39,40,40,39,39,39,39,39,39,40,down
41,38,39,25,48,1,41,39,39,34,44,14,41,39,39,36,43,21,41,39,39,36,42,27,41,39,39,37,41,27,40,40,39,43,39,42,40,39,39,41,38,47,39,39,40,40,37,50,39,39,40,43,37,50,39,39,40,43,37,51,39,39,39,42,37,51,40,39,39,42,37,48,40,39,39,43,38,46,39,40,39,41,38,45,39,40,40,41,39,43,39,40,40,40,39,42,39,40,40,39,40,38,39,39,40,38,41,36,39,39,40,38,41,34,39,39,40,37,41,33,39,40,40,36,41,33,39,40,40,37,41,34,39,40,40,38,40,35,39,40,40,39,40,37,39,40,40,39,40,38,39,40,39,40,39,39,39,39,39,40,40,40,39,39,39,40,39,40,39,39,39,40,39,40,39,39,39,40,39,40,down
41,38,39,26,49,3,41,39,39,32,45,16,41,39,39,32,44,21,41,39,39,33,43,24,41,39,39,37,41,23,40,40,39,46,38,42,40,39,39,40,38,49,39,40,40,41,37,50,39,40,40,45,36,50,39,39,39,43,37,56,40,39,39,37,38,55,40,40,39,45,38,48,40,39,39,45,38,45,39,40,40,41,38,45,39,40,40,41,39,42,39,40,40,40,39,39,39,39,40,39,40,37,39,39,40,37,41,35,39,39,40,37,41,34,39,40,40,37,41,34,39,40,40,37,41,34,39,40,40,38,41,35,39,40,40,39,40,36,39,40,40,39,40,37,39,40,39,39,39,38,39,40,39,40,39,39,39,40,39,40,40,39,39,39,39,40,40,39,39,39,39,39,40,40,39,39,39,40,39,39,down
41,38,39,24,49,4,41,39,39,31,44,18,41,39,39,34,43,23,41,39,39,35,42,28,40,39,39,36,41,26,40,40,39,40,39,41,40,40,39,43,38,45,40,39,39,42,37,49,39,40,40,43,37,51,39,39,40,46,37,51,39,39,39,44,37,52,40,39,39,42,38,51,40,40,39,43,38,47,39,39,39,42,38,45,39,39,40,39,39,43,39,39,40,39,40,39,39,39,40,39,40,35,39,39,40,38,41,33,39,40,40,36,41,34,39,40,40,37,41,33,39,40,40,38,41,34,39,40,40,38,40,36,39,40,40,38,40,38,39,40,39,39,40,37,40,40,39,40,40,39,39,40,39,39,39,39,39,39,39,40,39,39,39,39,39,39,39,40,39,39,39,40,39,39,39,39,39,39,39,40,down
41,38,39,27,48,9,41,39,39,29,45,19,41,39,39,33,43,22,41,39,39,35,42,25,41,39,39,36,41,25,40,40,39,41,39,39,40,40,39,44,38,44,39,40,40,42,38,49,39,40,40,43,37,51,39,40,40,44,37,54,39,39,39,43,38,54,40,39,39,42,37,52,40,39,39,44,38,48,40,39,39,43,38,47,39,40,40,42,38,45,39,39,40,40,39,41,39,39,40,38,40,38,39,39,40,37,41,34,39,39,40,37,41,32,39,40,40,36,42,31,39,40,40,38,41,33,39,40,40,37,41,33,39,40,40,39,40,35,39,40,40,38,40,37,39,40,40,39,39,38,39,39,39,38,40,40,40,40,39,40,39,38,39,39,39,39,40,40,39,39,39,40,40,39,39,39,39,40,40,39,down
42,38,39,32,47,2,41,39,39,33,44,17,41,39,39,34,42,23,41,39,39,34,42,27,41,39,39,35,41,24,40,40,39,39,39,38,40,40,39,42,38,45,39,39,39,42,38,49,39,39,40,43,37,50,39,39,40,45,38,51,39,39,39,44,38,54,40,39,39,42,38,53,40,40,39,43,38,48,40,40,39,43,38,46,39,40,39,42,39,45,39,39,40,41,39,42,39,39,40,39,40,38,39,39,40,38,40,34,39,39,40,38,41,33,39,40,40,36,41,32,39,40,40,36,41,32,39,40,40,37,40,33,39,40,40,38,40,35,39,40,40,38,40,38,39,40,40,40,40,38,39,39,39,39,39,39,40,39,39,39,39,39,39,39,39,39,39,40,39,39,39,40,39,40,39,39,39,40,39,39,down
41,38,39,28,47,3,41,39,39,31,43,17,41,39,39,34,42,22,41,39,39,35,41,26,41,39,39,37,41,25,40,40,39,42,39,43,40,39,39,42,38,47,39,39,39,41,38,49,39,39,40,44,38,50,39,39,40,43,37,53,39,39,39,41,38,52,40,40,39,42,38,48,40,39,39,43,38,46,39,40,39,42,38,45,39,40,40,41,39,44,39,40,40,40,39,41,39,39,40,39,40,38,39,39,40,38,40,35,39,39,40,37,41,33,39,39,40,36,41,33,39,40,40,37,41,32,39,40,40,37,41,33,39,40,40,38,40,36,39,40,40,39,39,37,40,40,39,40,39,39,39,40,39,40,39,40,39,39,39,40,39,40,39,39,39,40,39,40,39,39,39,39,40,40,39,39,39,40,39,40,down
41,38,39,30,46,4,41,39,39,31,44,17,41,39,39,34,42,23,41,39,39,35,42,27,40,39,39,36,41,25,40,40,39,40,39,39,40,40,39,43,38,44,39,39,39,43,38,48,39,40,40,43,38,50,39,39,40,44,38,49,39,39,39,43,38,51,40,39,39,42,38,51,40,39,39,42,38,48,40,39,39,42,38,46,39,40,40,41,38,45,39,40,40,41,39,42,39,40,40,39,39,40,39,40,40,39,40,37,39,39,40,38,40,34,39,39,40,37,41,32,39,40,40,36,41,33,39,40,40,37,41,33,39,40,40,38,40,34,39,40,40,38,40,36,39,40,40,39,40,38,39,40,39,39,39,39,40,40,39,40,39,39,39,39,39,40,39,40,39,39,39,40,39,40,39,39,39,40,39,40,down
41,38,39,31,47,3,41,39,39,32,44,17,41,39,39,34,43,22,41,39,39,36,42,26,41,39,39,36,41,25,40,40,39,41,39,41,40,40,39,43,38,46,39,40,40,41,38,49,39,40,40,43,37,50,39,39,40,44,37,53,39,39,39,42,38,52,40,39,39,41,38,50,40,39,39,44,38,46,39,39,39,42,38,45,39,40,40,41,39,44,39,40,40,40,39,41,39,39,40,39,40,37,39,39,40,38,40,34,39,40,40,38,41,33,39,40,40,36,41,33,39,40,40,37,41,33,39,40,40,38,41,34,39,40,40,39,40,36,39,40,40,39,40,38,39,40,39,39,40,38,40,40,39,40,39,39,40,40,39,40,39,39,39,39,39,40,39,40,39,39,39,39,40,39,39,39,39,40,39,39,down
