AccX1,AccY1,AccZ1,GyrX1,GyrY1,GyrZ1,AccX2,AccY2,AccZ2,GyrX2,GyrY2,GyrZ2,AccX3,AccY3,AccZ3,GyrX3,GyrY3,GyrZ3,AccX4,AccY4,AccZ4,GyrX4,GyrY4,GyrZ4,AccX5,AccY5,AccZ5,GyrX5,GyrY5,GyrZ5,AccX6,AccY6,AccZ6,GyrX6,GyrY6,GyrZ6,AccX7,AccY7,AccZ7,GyrX7,GyrY7,GyrZ7,AccX8,AccY8,AccZ8,GyrX8,GyrY8,GyrZ8,AccX9,AccY9,AccZ9,GyrX9,GyrY9,GyrZ9,AccX10,AccY10,AccZ10,GyrX10,GyrY10,GyrZ10,AccX11,AccY11,AccZ11,GyrX11,GyrY11,GyrZ11,AccX12,AccY12,AccZ12,GyrX12,GyrY12,GyrZ12,AccX13,AccY13,AccZ13,GyrX13,GyrY13,GyrZ13,AccX14,AccY14,AccZ14,GyrX14,GyrY14,GyrZ14,AccX15,AccY15,AccZ15,GyrX15,GyrY15,GyrZ15,AccX16,AccY16,AccZ16,GyrX16,GyrY16,GyrZ16,AccX17,AccY17,AccZ17,GyrX17,GyrY17,GyrZ17,AccX18,AccY18,AccZ18,GyrX18,GyrY18,GyrZ18,AccX19,AccY19,AccZ19,GyrX19,GyrY19,GyrZ19,AccX20,AccY20,AccZ20,GyrX20,GyrY20,GyrZ20,AccX21,AccY21,AccZ21,GyrX21,GyrY21,GyrZ21,AccX22,AccY22,AccZ22,GyrX22,GyrY22,GyrZ22,AccX23,AccY23,AccZ23,GyrX23,GyrY23,GyrZ23,AccX24,AccY24,AccZ24,GyrX24,GyrY24,GyrZ24,AccX25,AccY25,AccZ25,GyrX25,GyrY25,GyrZ25,AccX26,AccY26,AccZ26,GyrX26,GyrY26,GyrZ26,AccX27,AccY27,AccZ27,GyrX27,GyrY27,GyrZ27,AccX28,AccY28,AccZ28,GyrX28,GyrY28,GyrZ28,AccX29,AccY29,AccZ29,GyrX29,GyrY29,GyrZ29,AccX30,AccY30,AccZ30,GyrX30,GyrY30,GyrZ30,Label
3,-159,-1,283,-111,162,-26,-2,-14,-166,75,-266,11,38,7,-43,1,-274,6,44,7,-151,288,-134,8,27,11,105,-153,-199,12,24,3,21,116,78,-7,14,-17,-36,-112,17,1,7,7,336,210,-228,14,0,10,91,-205,238,-12,27,-5,-418,28,311,0,2,-6,796,15,-397,-8,16,-2,-893,-90,713,5,-15,10,492,133,-296,-2,-19,-7,-108,-94,92,1,-22,16,-244,-9,174,13,-4,1,45,-75,-168,-9,15,-6,-95,-35,193,-6,-13,-8,130,-36,-156,-14,-21,-14,-53,88,56,7,5,6,-24,-18,-56,-9,-2,-5,-3,112,22,18,1,14,130,-134,-50,-11,-5,-7,-223,73,149,7,1,0,0,-11,-27,0,6,-1,-22,102,23,3,-3,1,171,-133,-125,0,2,2,-85,95,58,3,6,3,-61,-87,-7,-3,9,-3,57,63,-1,1,-9,2,-144,-44,31,left
16,149,48,128,-118,83,1,-3,-2,153,-200,165,0,-47,-28,118,28,-188,15,-37,-9,-247,235,40,-9,-13,-2,145,-19,50,-8,-47,-31,-120,-178,144,-14,-46,-15,334,70,145,-16,-27,7,-52,-81,-186,4,-30,6,-237,296,263,1,-15,17,203,52,-216,-12,43,-4,-187,-88,-55,5,-14,-1,-85,-41,-290,-7,37,-1,-137,107,-9,20,-12,16,-137,-35,-331,6,60,2,-51,-66,164,-1,0,3,234,-50,-319,-5,1,-18,19,118,-100,15,25,17,115,-175,164,-12,3,-9,157,202,-173,2,10,9,-214,-185,360,-8,-7,3,196,102,-457,-20,23,-7,-314,157,253,12,16,12,109,137,-104,5,9,7,-46,-103,184,-5,3,-1,27,2,193,-1,2,-5,281,-235,172,6,-7,-5,107,141,47,10,-31,-2,-19,-79,113,-4,-11,-2,-124,47,-180,-6,-7,-1,-97,-52,229,left
-8,-155,-18,211,-251,60,-24,6,-8,-311,124,12,-1,-1,5,-91,137,-332,12,48,6,-127,174,-75,15,23,22,-70,-108,-104,4,19,-14,183,-20,-356,10,44,15,-432,-10,586,7,5,-3,491,-173,-670,-22,5,-23,-8,200,303,7,7,21,343,-220,-97,-14,-6,-18,142,191,241,4,5,18,-300,-314,386,-9,4,-4,191,83,-103,-7,-7,-8,-134,141,-397,-6,31,-2,-333,314,257,18,6,11,216,-81,-202,9,-13,12,-62,102,223,0,0,2,112,-48,-100,6,-11,7,-58,-179,230,-5,-13,-9,134,-32,-105,-8,-2,-14,-197,-32,200,10,-17,4,156,-7,-72,-7,-5,-4,-162,-23,-3,3,2,-6,-17,56,-36,7,5,2,46,2,19,-5,-6,1,94,33,-27,8,-9,5,-15,-52,-36,-12,12,-3,-85,-19,50,2,-13,3,-12,-12,-80,1,11,-6,-43,82,62,left
-16,-154,-11,230,-127,354,4,31,1,-37,-133,-465,-11,36,-9,-86,302,-59,25,36,17,-196,-20,-185,1,14,-3,90,-60,-148,-5,8,-8,-194,143,130,4,13,14,113,-42,-56,5,13,-1,32,-34,-101,3,-6,-13,97,-4,-53,3,14,11,69,-33,-123,-17,-3,-5,29,113,3,25,17,9,-136,-109,80,-12,9,-6,-28,60,139,-1,14,15,-157,15,111,4,6,10,113,-71,-45,-12,12,3,135,10,3,-8,-7,-11,-2,6,228,10,1,2,113,68,-6,1,-12,-1,-23,-92,145,-8,1,-7,90,36,-50,4,-25,5,-33,-48,213,-3,7,-5,-61,65,-119,8,-20,7,-22,-140,62,-6,-1,-10,-10,52,-15,4,-13,3,-49,24,-45,-2,5,-5,-17,-23,-5,4,10,-3,79,1,-13,-1,-16,2,-135,-19,-19,-1,10,0,0,44,18,0,9,5,139,-10,-9,left
24,165,27,-209,-69,145,30,-1,-2,116,-142,431,14,-36,1,520,-148,260,-8,-125,-34,-542,25,-338,-53,-58,-42,-186,166,568,26,-6,7,51,220,82,9,-47,19,592,-247,-523,-22,-8,-3,-124,24,-119,-2,-23,16,89,42,-146,-27,36,-3,0,-193,-319,-16,-9,-11,-262,329,-101,18,35,14,-236,50,-88,23,14,10,31,-37,-189,-6,15,-15,100,-97,-242,-10,17,-3,-100,84,155,16,-8,8,47,54,-414,-6,35,4,-112,-41,234,4,-11,0,69,73,-372,1,36,8,-89,-1,307,-10,3,-7,114,67,-105,-2,16,11,-186,-6,294,5,1,2,233,-4,-68,11,15,2,-261,-21,187,-1,21,8,331,-118,194,-19,-10,-6,260,-48,174,4,-47,-2,-45,-62,79,-4,-15,-11,-189,53,17,-3,-5,-9,-71,24,-72,-4,12,-3,-30,33,66,10,-15,10,114,5,-19,left
23,144,60,-229,-25,-4,18,-2,4,12,-384,384,-25,-20,-37,115,-42,110,-4,-74,-39,94,152,35,8,-23,-15,-63,260,253,17,-46,0,17,-95,-32,0,-9,-5,461,-15,-19,-20,-98,2,-44,-200,-321,-20,-40,3,-166,125,126,-10,-23,7,-249,69,-332,-19,34,-9,27,20,-449,8,55,8,-331,206,32,28,36,4,21,93,-199,3,34,7,90,-181,-198,5,3,5,36,-14,-93,-3,30,1,245,-99,60,-10,9,-14,-34,91,257,3,-7,9,-189,31,17,3,6,8,166,132,-364,5,12,6,-461,231,256,4,27,14,273,-182,-255,4,32,2,-180,-3,485,-9,-8,5,615,-206,-208,1,-17,-3,-86,-80,568,-18,-16,-26,-38,29,-194,2,-15,7,-61,32,324,7,-37,6,136,44,-377,-4,8,-1,-348,-25,133,-2,-8,-9,86,-20,-73,6,-4,1,-68,27,12,left
30,-153,-21,288,-215,514,-28,-1,-5,-61,-62,-475,-21,25,-7,-135,186,-286,0,43,9,-117,71,-199,26,32,10,-3,159,-117,7,28,-1,143,-166,-150,-6,29,6,-165,185,-29,4,-7,1,13,-138,-230,6,31,7,4,62,210,-14,1,-10,72,15,-4,2,25,6,-164,130,128,11,27,16,90,-45,261,-2,-4,3,130,-145,-69,-4,14,6,114,26,197,-7,-28,1,35,-147,108,-8,-13,-11,-45,91,-6,-8,-10,-3,-93,-14,113,7,3,0,-3,45,-5,-3,-15,-3,82,-44,150,2,-20,1,-77,-12,-121,-3,4,-6,-78,16,28,3,-1,4,48,-59,-13,-1,0,-5,-10,33,36,0,-15,-1,-6,-6,-23,2,12,-1,35,34,1,1,-3,3,72,0,-34,-3,0,-2,-156,21,-10,2,-2,2,59,-28,14,2,8,1,67,-8,-47,-1,-12,2,-55,-42,34,left
25,158,44,-708,23,75,8,14,-7,789,-434,159,-12,-51,-33,-35,394,284,20,-56,1,7,-108,182,3,-46,-13,44,-25,55,-32,-25,-25,146,44,249,6,-20,5,-70,-177,30,-13,-103,9,26,191,-304,-15,-2,4,-87,-85,-146,-24,-24,-21,-26,55,-408,-6,8,0,-61,91,-385,2,59,1,-182,301,-264,49,69,31,-9,-213,146,-5,15,-3,314,-13,-397,8,14,4,-278,214,439,-2,4,5,265,-159,-349,-3,-3,-11,-229,64,259,-15,2,1,172,12,-418,8,21,8,-220,27,398,-9,7,5,126,28,-258,10,38,9,-341,1,667,10,-4,8,646,-122,-320,-3,0,-3,-427,77,365,3,-18,2,309,-194,-216,-27,-9,-23,-182,-13,218,3,-33,4,-48,-6,-129,-1,8,-2,-52,65,122,-4,-4,-1,244,-20,-35,4,-14,-2,-124,21,18,6,-8,1,70,18,-60,left
4,153,41,-379,-5,336,14,-14,13,410,-268,116,4,12,-24,-342,124,300,22,-46,-23,-65,-28,403,10,-70,-18,368,-118,-125,-12,-98,-33,28,-37,-495,-15,-48,-14,-217,318,-58,-11,-15,34,-5,80,-268,-9,6,11,117,-59,-423,-11,22,0,47,-45,40,-5,16,3,-29,56,-507,19,53,4,-220,164,119,5,31,-11,124,-71,-219,7,21,4,49,4,147,1,5,7,35,0,-184,6,22,15,-234,58,258,8,26,22,347,-51,-201,-7,25,-3,-266,55,425,-6,20,5,263,-179,-273,-13,-3,-7,-102,31,631,-12,-22,-7,154,-150,-169,-8,-38,-10,-151,50,325,5,-7,-3,-61,5,-75,-1,-19,-13,-10,22,29,3,0,1,48,77,-28,8,-15,8,58,-38,-35,-3,6,2,-10,42,22,2,2,-1,3,-20,-20,-4,-6,-1,-53,-3,-29,3,3,-1,-14,-12,12,left
31,149,44,-206,-37,13,12,4,24,250,-365,129,-27,-30,-37,-44,-66,358,1,-32,-26,63,222,248,5,-34,-28,98,172,165,18,-60,-1,296,-140,84,-9,-76,-23,-478,47,62,-8,-89,22,44,242,-229,-20,0,7,-99,-110,-315,-7,0,9,94,-148,-335,-20,7,-5,67,-14,-515,-6,60,-11,-110,169,-59,25,36,6,0,82,-264,-1,30,-1,115,-23,-17,10,9,7,-35,-63,-89,-13,12,-12,107,316,4,13,23,22,-180,-261,217,1,-3,-3,42,290,-189,18,42,25,-238,-183,276,-18,-5,-4,124,58,-124,3,19,8,-160,24,228,9,4,3,124,-79,107,-16,-9,-15,269,-48,60,6,-13,3,-72,-70,132,-6,-14,-14,108,-41,51,-11,-20,11,-198,32,180,4,4,-11,37,-28,-162,5,-19,-1,-31,15,57,7,6,1,67,-3,-43,-5,-8,0,18,-10,21,left
26,144,59,-78,-402,12,-12,-9,-18,213,-200,383,-6,-4,-33,-76,184,361,10,-119,-32,-205,158,-47,-5,-36,-8,-138,236,98,26,-89,-13,9,175,2,-16,0,28,190,-245,-196,-36,-67,2,75,-30,-365,-31,31,3,129,100,-240,13,21,-3,-157,-22,-245,5,38,-9,-9,80,-326,20,39,4,-86,45,92,10,22,2,219,-61,-353,-16,19,-1,-34,108,217,15,-3,9,85,-23,-274,-9,26,1,-131,110,270,12,-9,12,80,118,-265,7,20,4,-329,-100,336,4,33,14,128,168,34,-11,9,-2,-5,-261,280,4,-15,1,-90,17,139,-6,-8,4,146,-136,-16,-12,-9,-13,-202,-20,198,16,-8,2,259,-22,-195,-15,2,-17,-56,43,113,3,-16,-1,-60,-8,-68,-1,-2,2,5,35,117,3,-6,3,82,-38,-122,2,-1,-3,-92,8,20,2,0,6,70,3,26,left
21,-158,-10,-125,-31,701,-22,0,2,433,-247,-327,-32,-1,-14,-109,80,-429,-5,43,-4,-202,157,-360,24,58,6,-167,182,-1,19,17,13,210,-98,-199,-6,23,-3,-91,26,-101,-3,23,2,-118,87,-71,4,25,13,175,-72,158,11,-2,-7,95,-4,-238,-31,25,2,-128,51,433,16,-5,-6,248,-92,-120,-8,9,6,-303,269,350,22,11,20,61,-161,-4,3,17,-7,44,-40,33,-18,-1,5,180,-34,95,1,-40,-10,135,-108,138,4,-25,-3,-187,51,-56,-8,-8,-6,-86,-3,16,5,5,-1,15,-9,-5,0,-13,-4,-30,-42,86,1,-12,0,-24,63,-127,-4,5,-2,-33,10,25,2,-5,5,-5,3,0,9,3,3,24,10,-33,-2,5,-1,35,-53,12,-2,-11,-4,-62,-16,-5,2,3,-1,53,-3,-65,-3,3,-2,-32,20,43,3,-4,4,-34,-16,-5,left
13,146,59,-859,-119,-25,1,75,-14,877,-81,6,2,-74,-39,-244,14,180,20,-27,-8,653,148,578,4,-63,-11,-491,-165,-117,12,-43,-8,121,250,405,-12,-83,1,422,-289,-376,-33,-74,-4,-188,80,78,-9,-25,11,-20,-85,-167,-18,0,-6,-55,49,-523,-21,13,-12,-78,88,-386,14,64,1,-363,259,-97,23,53,9,156,30,-179,13,36,8,74,-68,-25,1,9,4,231,75,-4,8,13,10,-221,37,-5,-4,11,0,-70,32,46,0,6,14,31,47,101,-4,16,-1,-196,-123,183,-7,28,-3,252,-64,-125,4,18,4,-261,-4,573,-4,-12,0,514,-29,-351,-3,-24,3,-304,-174,523,-16,-29,-11,312,70,-365,13,-6,-3,-152,61,136,7,-17,4,-155,-35,-166,3,7,-3,-67,-22,111,-10,-9,-6,45,35,21,3,9,2,73,-16,-43,0,-8,-1,-55,27,29,left
-9,-154,-24,379,-138,223,-3,-3,11,-129,-7,-274,-3,39,-9,-327,170,-323,27,63,17,-175,91,65,4,16,-3,395,-211,-544,-3,44,-2,-209,166,356,8,-15,13,322,-132,-405,-11,33,-10,-164,10,504,-2,-12,-4,201,82,-423,-7,20,3,-366,151,530,3,7,8,98,58,-225,10,32,16,-84,0,332,-2,-4,8,142,-257,-7,-6,-4,-11,-61,101,197,-4,-21,1,68,-155,-206,-2,-6,-3,-135,66,273,-3,-10,-7,100,-88,-144,2,-9,3,-102,49,175,2,-11,-4,98,-34,-59,-6,3,-6,-29,71,35,6,-9,0,71,-39,-94,-1,-1,2,9,41,59,2,-6,-2,-19,5,-52,-2,0,0,-90,-8,6,-3,6,1,95,26,-41,8,-1,0,20,-8,-2,-6,3,0,-84,-4,23,6,0,0,105,-3,11,-5,1,4,-29,-2,13,4,-6,-1,-100,-53,-36,left
-5,150,40,-360,-22,106,18,-5,7,261,-168,352,3,-10,-35,233,168,-99,33,-98,-9,88,-57,273,-26,-17,-18,124,-246,-27,-8,-71,-31,-643,297,332,28,-72,16,260,-165,-137,-38,-26,12,216,78,-421,-22,26,7,-232,52,-166,-1,15,-10,149,-22,-426,-14,34,-8,-212,156,63,35,28,18,15,210,-299,1,32,-9,118,-220,-55,1,-4,4,13,134,-41,1,6,-1,147,-39,-299,3,33,14,-118,95,177,-2,8,-2,29,-34,20,13,22,15,-246,75,164,2,29,13,147,-63,38,-7,6,-4,-203,2,58,1,10,8,255,-171,219,-6,-16,-7,-30,5,83,-6,-19,-2,35,-180,113,-4,-24,-9,-9,108,38,1,-4,1,135,-102,53,-6,-18,-17,-35,83,-10,2,4,0,-62,-2,-44,3,-1,2,75,80,93,-4,-12,-3,-78,-43,-105,-7,0,1,-32,76,14,left
20,163,44,-741,29,-101,20,-2,12,1120,-572,206,-24,-39,-38,-279,369,471,30,-75,-26,-372,33,229,-19,-66,-31,45,29,-19,2,-60,11,-85,187,258,5,-20,25,316,0,-297,-6,-53,11,92,-92,-153,-10,10,4,159,-275,-581,-17,2,-13,85,30,-155,-17,46,-14,-315,188,-92,34,19,8,91,208,-226,10,32,10,-81,-225,-203,-1,30,-5,-58,141,-163,2,14,-2,13,-169,292,-18,11,-5,110,222,-214,2,16,10,-257,-79,416,-2,16,13,533,0,-393,-7,4,-8,-629,79,909,18,12,10,495,-147,-403,2,-12,1,-513,90,561,10,14,16,510,-53,-627,-19,-18,-19,-423,60,304,7,1,7,181,-168,-163,-14,-20,-14,85,7,203,1,-16,0,-155,-28,-99,-3,-7,-4,23,72,38,7,3,0,135,35,45,1,-9,0,-69,10,-33,-2,7,1,-51,-18,-24,left
17,141,62,-145,-138,-333,-17,-13,-43,-305,70,490,13,9,-8,692,23,104,7,-78,-43,-49,-198,120,-3,-63,-3,-233,278,509,40,-82,16,474,-187,-313,-28,-47,-9,-200,33,-78,-13,-50,16,-268,77,-118,-12,66,-8,88,-28,-225,-1,-19,2,26,-6,-214,-8,42,-3,-125,47,-218,18,27,4,157,204,-181,16,26,8,-27,-180,-264,-8,28,-1,-218,240,318,-1,15,-2,128,-158,-369,-5,22,1,-12,45,117,-10,-3,5,22,233,-6,3,24,24,77,-337,-87,-18,-5,-22,-86,181,391,32,25,25,-140,-215,129,-16,8,-12,266,-104,338,17,-32,12,53,106,-258,5,-4,-6,-7,43,119,0,-13,-2,-100,-155,-47,-19,1,-13,1,80,135,-1,-14,-4,-7,-21,-118,-2,-6,6,46,-39,160,-6,-12,-3,10,-6,-32,3,-6,-1,-35,74,-45,5,0,-1,-69,38,-25,left
34,146,41,-272,-133,-189,5,24,-25,372,-107,740,-11,-102,-21,-70,123,-270,-7,-67,-25,-4,-36,451,-3,-67,-3,257,-267,-257,-13,-79,2,14,121,-52,-24,-2,-1,-93,104,-91,-16,2,14,-103,98,-135,-1,27,4,-12,-18,-306,8,30,0,-175,242,-125,18,28,10,-95,-132,-97,5,28,-3,21,131,-189,-1,13,-7,192,-196,32,-1,24,9,31,138,-165,-1,22,1,108,52,287,22,15,15,-205,34,-219,-18,24,1,-42,180,369,7,28,13,396,-521,-133,10,-15,3,-521,451,331,-13,7,0,312,-255,-73,-4,-34,-11,-193,103,137,6,-13,-3,170,-113,-204,-3,-2,-6,-24,-49,209,-5,-20,-8,10,77,-109,5,4,5,-60,-61,85,-5,-7,-3,140,-29,-8,1,-10,2,-65,40,-23,0,2,-3,-43,-6,28,0,-9,-1,8,-13,-80,0,12,-2,-39,54,51,left
7,156,26,-209,-73,-209,1,-57,-26,54,103,98,13,-59,-1,225,-120,491,-7,-25,-2,87,-139,200,3,-73,-2,-135,190,280,-3,-37,-3,-67,56,-77,7,-49,8,113,-185,-114,-21,3,-3,184,-117,-397,-28,-5,-12,-69,50,-446,-10,47,-6,-196,200,-232,36,34,20,-132,35,-165,-4,42,-10,233,-4,-292,4,25,6,-102,12,460,8,6,10,364,-125,-305,-13,11,2,-247,114,242,11,7,10,-306,-82,97,-25,27,-1,-46,33,52,3,17,-1,212,124,5,0,3,4,-135,44,343,13,1,18,546,-22,138,-1,-39,-19,-113,-24,-136,9,-1,2,-70,-46,-216,-13,-8,-3,-247,-7,127,-1,0,-4,85,-105,7,-5,-14,-3,37,74,68,3,-4,-2,-38,-7,-25,4,-9,1,-35,-10,37,4,-3,-4,42,-57,-43,-2,5,-4,10,29,-33,-2,-6,0,65,54,46,left
24,155,38,-526,-24,-519,-6,49,6,677,-224,631,6,-72,-11,-340,206,-174,22,-42,-19,525,-74,753,5,-73,-21,-69,-203,122,-12,-116,-21,-568,101,-66,-19,-32,-6,199,86,-108,-23,-42,2,133,-5,-347,-4,17,9,-254,150,156,-10,-3,6,386,-270,-598,-16,12,-16,-322,144,-201,27,71,9,-106,402,-13,40,43,19,308,-439,-68,-15,15,7,162,139,-103,-14,3,-17,-434,217,-20,1,32,26,102,-160,-39,-13,15,-20,-93,234,206,36,39,19,-348,41,173,-3,31,14,609,-216,-64,-5,-12,-3,-379,-127,215,-21,-8,-6,129,-30,-11,0,-33,-2,179,57,-128,21,-24,8,-355,-50,155,-14,3,-15,285,-49,-55,0,-3,-7,12,82,47,1,-10,1,22,60,54,6,-6,7,-42,-18,23,-9,1,1,-1,-37,-20,-2,-1,-5,50,13,-89,7,2,5,-23,13,85,left
34,162,5,236,34,280,-9,-78,-9,49,-346,175,19,-84,2,-231,286,454,-14,-63,-14,196,-302,-291,-12,-69,-4,-273,303,106,3,-21,14,338,-284,-411,-32,-1,-18,81,10,-182,-21,2,-4,-394,207,-286,3,45,6,-196,61,-181,17,40,-2,69,81,-252,16,38,12,-4,-151,140,-4,-3,-7,258,74,-430,-10,37,-5,-242,103,295,37,17,34,62,-7,-117,-10,9,-5,-62,21,167,7,31,11,38,7,148,-5,3,2,-160,-133,164,-15,11,-4,269,5,11,-6,-18,-6,51,-92,156,-12,-18,-13,60,36,-53,6,-9,4,-240,34,144,-5,-1,0,171,-29,-27,3,-22,4,-124,19,64,-1,-3,-2,30,29,-5,7,-10,0,15,-54,-48,-7,7,-6,-20,98,47,7,-11,1,83,-80,-168,-5,2,0,-81,73,88,6,-3,5,84,-33,-54,-3,3,0,-38,-13,65,left
14,153,26,-202,83,111,15,-3,14,-74,-338,-73,-16,-12,-30,144,86,328,6,-71,-10,417,115,25,-16,-33,-26,-66,61,151,32,-86,7,-397,96,326,10,-25,-2,297,-264,-82,-26,-66,-12,-97,133,-325,0,-12,25,67,-126,-178,-30,-18,-13,173,-243,-599,-25,50,-8,-348,317,-80,35,38,23,-133,51,-225,12,55,-14,144,-18,-33,-8,33,-3,23,40,-54,-10,31,0,183,97,313,0,18,15,0,79,-70,7,16,14,27,111,137,13,22,20,-253,79,-2,13,-8,5,-160,-166,11,-14,-2,-6,104,-142,310,-9,-24,-16,121,-68,-159,-3,-19,-6,31,-40,321,-3,-20,-7,-31,44,-118,2,-1,-3,-26,18,87,0,-6,0,71,9,-60,5,-14,3,-2,5,-29,-3,5,1,-13,35,25,5,-5,5,-62,-45,-112,1,11,-1,-16,1,37,-2,-3,-1,92,-30,-10,left
14,151,50,-730,-16,100,18,54,-3,640,-265,168,-16,-23,-40,22,227,67,17,-91,-27,644,92,-31,-31,-52,-21,-306,-334,341,-5,-153,-13,-201,261,365,30,-43,31,-175,312,-69,5,-14,19,85,-256,-407,-32,8,4,242,-242,-373,-9,32,-15,-177,60,-386,-5,46,-4,6,106,-144,14,19,5,-253,121,-29,5,19,-1,322,-111,-452,-4,27,2,-392,167,447,8,6,1,201,-169,-273,-21,17,-16,-140,153,236,16,36,23,168,189,-300,3,28,15,-538,107,391,14,50,19,537,-129,36,-1,-11,-14,-113,-185,195,-18,-21,2,225,-134,72,0,-33,-7,-95,-68,239,-12,-10,-12,-40,131,-220,-2,-16,-1,-96,-100,158,-2,1,-3,164,143,-49,4,-15,4,36,-32,53,4,-5,-3,-134,72,-43,9,-1,4,59,-70,-61,-5,-3,-4,27,27,24,6,0,3,-54,18,-2,left
-1,155,34,-207,-254,-221,2,31,4,409,41,89,9,-60,-15,-398,-178,229,25,-57,-17,273,119,521,-17,-102,-27,224,3,-30,-34,-65,-24,-415,334,321,22,-27,18,-49,-7,-224,1,-20,9,190,-108,-226,-12,-21,4,103,-151,-285,-28,23,-3,-158,80,-424,0,21,-6,100,103,-414,23,66,16,-271,159,44,14,23,-9,415,-72,-413,-7,51,7,-140,19,283,22,10,15,146,27,37,-10,13,2,-82,15,50,2,23,12,-231,-4,318,-2,24,0,-11,-89,58,-8,0,-10,103,-108,135,-9,-11,-4,65,43,141,-4,-44,-2,-81,-153,-64,-2,-7,-1,30,112,175,4,-14,-2,31,18,-166,3,-3,1,7,-33,161,1,-17,-3,16,29,-103,-2,-3,1,-65,0,-1,-1,8,-4,41,35,4,4,1,2,8,-24,-42,-2,-8,3,-5,21,44,2,7,1,-55,-39,-66,left
18,157,51,-402,-110,-6,-27,-19,-25,206,-92,-88,4,-8,-18,166,280,428,6,-76,-37,369,-283,-19,25,-97,-17,-163,294,559,23,-24,37,112,-219,-127,-27,-58,-12,97,-17,-87,-22,-25,1,-384,79,-98,-14,-18,5,260,-151,-520,-23,11,-21,-448,174,-305,9,59,13,-7,183,-2,31,24,6,122,-126,-543,8,62,4,-215,18,584,6,5,6,528,-69,-740,-22,59,2,-352,163,616,10,-1,11,149,66,-206,10,52,9,-273,146,335,2,18,16,336,-241,-53,-6,-11,-6,-6,-73,522,-6,-40,-7,427,-219,-188,-20,-40,-15,-654,171,50,2,5,-6,172,-10,-68,1,-16,-3,-40,53,130,7,-13,3,55,5,-67,1,-8,0,-14,16,44,3,-6,-1,13,-6,-141,0,9,-1,16,32,93,2,-6,6,-37,-5,-95,1,4,2,-54,-59,-26,-1,10,1,22,-9,5,left
2,164,-12,19,73,170,6,-65,4,-33,-68,591,38,-56,10,577,187,205,-24,-83,-39,-123,-311,-188,-18,-106,4,-349,183,7,30,-20,18,286,-170,-265,-31,20,-16,257,-16,-235,-14,-12,-1,-485,88,-256,1,45,3,-180,-63,-157,29,29,16,-148,130,-232,8,40,-7,252,-270,34,-15,0,-2,-157,213,-286,2,40,17,-92,8,161,-12,21,-8,246,36,-255,-9,27,16,-258,102,270,-3,6,-1,325,-5,-224,1,17,-4,-470,161,572,5,10,4,520,-62,-413,6,-6,8,-412,-45,656,2,-22,2,430,-238,-347,-12,-14,-10,-209,112,336,2,-28,-3,90,-124,-58,-4,0,0,-81,93,20,-1,-14,-9,-33,-16,-38,5,6,1,66,35,41,-4,-9,-1,-38,30,-84,8,1,7,3,-38,-33,-4,4,-1,-3,28,71,1,6,0,15,-59,-90,-4,-2,-3,-20,39,53,left
41,-150,-7,135,-107,550,-27,-25,-6,244,-364,-555,-34,4,-6,-245,155,-123,-2,55,-5,-172,279,-210,30,39,12,-99,10,-134,8,43,1,188,-141,-72,-2,26,0,-45,53,103,-11,28,10,86,186,119,-7,11,-5,20,-46,-109,2,49,16,-363,394,44,14,41,16,197,-217,18,5,-1,10,54,-13,244,-5,-32,0,52,-210,201,-17,-40,-22,21,-105,12,1,-22,-9,-42,85,-69,6,-12,-3,47,-7,55,6,-18,1,43,-2,-32,-6,-4,-8,-114,52,40,3,-4,9,56,-31,-100,-4,16,-4,-104,47,-11,8,0,8,41,-11,14,-4,-11,0,104,2,10,0,4,-2,-77,-45,-41,-3,9,-6,-34,-6,12,-1,-8,1,87,15,7,1,1,3,-61,12,4,-3,9,-5,31,25,34,2,-5,1,11,-4,4,0,0,-1,8,39,-5,5,-12,3,-19,-62,-73,left
3,157,31,-546,-21,-7,7,4,-5,270,-283,-1,0,2,-22,-130,208,53,22,-44,-6,742,-271,598,-30,-154,-19,170,166,537,-20,-134,-10,-883,542,11,61,-20,35,485,-232,-328,-35,-11,-1,242,-498,-738,-39,27,-29,-54,52,-242,8,64,10,-372,279,-10,12,33,-21,157,211,-351,19,60,29,-118,-90,-54,-15,17,-14,177,9,-183,3,41,10,37,304,267,10,22,19,-117,-31,-197,7,62,3,-383,58,882,17,-10,20,759,-283,-606,-21,-22,-8,-524,-13,573,-5,-29,-4,159,-290,-305,-15,-8,-17,-139,181,362,0,-25,-1,23,-55,-173,5,-8,5,-98,80,160,3,-12,-1,57,-52,-113,4,-2,1,1,5,21,0,-2,-3,69,5,-63,4,-3,1,8,-41,33,2,-3,-2,0,-31,-85,-6,4,-3,-38,90,89,-3,1,0,85,-37,-21,-2,-5,-2,-12,26,-55,left
9,160,37,-670,113,-366,4,-2,17,405,-291,-36,-13,43,-24,-2,43,489,47,-93,-3,574,-123,206,-22,-69,-42,38,214,610,-1,-103,-34,-102,45,289,22,-107,0,-260,148,9,11,-36,31,-16,-270,-670,-29,31,-2,190,-187,-340,-34,0,-10,122,-69,-446,-7,46,9,-572,338,111,36,54,-4,237,-90,-134,-17,56,-9,120,119,-301,-5,39,22,-31,329,-80,10,21,16,-212,115,-326,24,95,27,-241,61,172,4,13,7,289,-243,312,-15,-20,6,174,-182,234,-16,-76,-17,29,-267,208,-10,-17,-15,-212,219,-15,5,3,-8,51,-106,63,3,-20,-3,72,36,147,-6,4,-1,92,80,-97,2,-24,-6,-107,-16,57,-3,7,1,-16,83,23,8,-10,5,-103,-61,-80,5,15,2,30,17,50,-2,-1,0,-62,-28,1,-1,3,4,197,-4,-44,-2,-6,4,-60,-9,-26,left
4,168,41,-112,-149,-733,-1,57,-15,126,147,246,41,-57,5,216,-339,364,-22,-72,-45,141,135,883,-9,-134,-23,-702,105,427,27,-100,-18,222,606,195,28,-45,35,285,-580,-541,-44,-40,-6,3,-255,-409,-36,11,5,185,-102,-631,-14,50,-17,-411,391,-215,37,85,15,-225,23,-57,5,45,-6,644,-194,-122,-13,19,0,-137,213,114,-2,33,6,-24,171,-99,-4,23,9,-103,151,10,1,18,6,-128,33,26,6,14,21,-215,-13,391,-5,-17,-8,237,-247,-161,13,-3,10,-283,98,359,-3,-15,-4,422,-195,-270,0,-10,-3,-334,75,228,0,-9,-7,133,-160,17,-9,-9,-13,0,128,10,10,-12,2,49,-58,-45,-6,-2,-5,40,42,23,-2,-4,1,-63,-33,-59,3,-1,5,-27,79,87,-1,-3,1,-19,-96,-89,2,10,1,66,81,82,6,3,1,22,-102,-66,left
-10,164,23,-383,33,-112,25,-36,9,378,-294,134,-5,29,-26,-112,236,483,14,-117,-27,137,-29,58,-5,-43,-15,77,299,692,28,-87,11,270,-283,-345,-15,-112,9,-295,-157,-275,-31,19,2,17,119,-81,0,-20,1,516,-309,-749,-23,52,-21,-600,276,-29,17,72,9,-121,217,-305,-2,37,3,205,-198,-18,-12,27,3,11,134,-88,7,12,7,-77,163,172,2,26,5,-172,167,-153,10,11,12,-252,-143,239,0,43,3,208,-3,-128,6,2,8,136,-80,374,-13,-22,-5,205,-122,7,-5,-36,-6,-114,-3,34,0,7,3,-33,-20,164,-2,-21,-3,-88,-72,29,-3,3,-5,53,91,13,3,-11,-1,-38,-34,17,-8,-3,-6,81,89,-58,11,-9,6,-65,-26,-23,3,4,2,39,-1,19,-6,1,-8,37,-10,-80,-1,-3,0,-9,28,31,5,7,5,69,-15,12,left
21,146,53,-206,-339,-294,-2,38,-22,-177,199,365,5,-60,-24,823,-292,224,2,-101,-22,-41,305,513,-25,-79,-28,-76,28,-262,14,-95,-5,-744,324,457,10,-5,18,290,-283,-443,-14,-30,0,102,-117,-121,-21,10,6,206,-126,-555,-28,20,-11,-295,196,-260,21,51,15,-343,175,82,23,39,-10,201,-16,-345,-11,57,12,123,16,207,13,16,4,238,11,56,-7,30,6,-145,191,-47,16,35,19,94,30,16,-8,-5,6,-421,10,382,7,18,7,167,45,-198,3,-5,-5,-362,-385,231,-15,-4,-11,499,80,-68,14,-29,5,-153,-83,117,-6,-21,1,-31,-142,-39,-8,-5,-7,-2,89,66,5,1,-3,211,30,-12,3,-1,-2,18,-17,16,4,-9,5,191,-16,-47,-12,0,-10,-50,-20,21,-4,-12,3,-109,-34,-97,-10,3,-4,-91,98,46,-1,-3,-2,-62,32,-86,left
36,163,58,128,-137,-697,-30,-24,4,111,-335,816,0,46,-23,-554,338,145,24,-57,-27,610,-177,428,-11,-75,-53,-242,567,619,32,-99,0,-241,43,239,23,-102,12,522,-246,-605,-5,-72,41,-262,-116,-246,-27,14,-1,59,-336,-601,-40,25,-32,144,106,-449,5,53,12,-350,263,-189,38,69,0,253,-238,91,-23,26,-8,18,182,-300,4,42,14,-82,162,54,-10,26,0,-128,122,-272,4,44,18,-406,70,307,-13,27,1,247,-17,-55,3,24,5,-103,-1,302,-10,-9,13,187,-144,380,-1,-14,-10,306,46,100,21,-40,7,-95,-181,279,-8,-28,-18,280,-16,-80,0,-35,-11,-206,20,-19,2,-9,10,-124,46,-36,2,4,-2,6,-29,-150,-4,8,-3,-42,8,27,0,-4,1,34,-33,8,-3,5,-4,-29,93,51,3,-2,1,25,-74,-74,-2,1,-2,1,55,12,left
3,163,55,-486,-67,-273,6,10,3,408,-214,437,16,-2,-39,-486,334,235,32,-101,-32,735,-188,545,-8,-61,-18,334,-81,266,-30,-160,-18,-296,-20,-688,-11,-8,7,-256,332,234,15,-50,48,-16,-217,-577,-34,41,-15,150,-128,-148,-17,-1,-2,-122,94,-538,9,73,8,-315,267,111,31,36,0,112,-117,-573,4,73,-3,71,63,508,1,-10,6,443,-177,-552,-13,50,1,-250,151,814,18,-20,5,138,-89,-286,-27,30,4,-237,124,510,27,-3,6,67,-31,-413,-20,18,2,-192,61,517,3,-18,5,375,-103,-592,-6,-9,-2,-336,-75,512,1,-21,-3,222,-22,-248,-12,-4,-8,-185,51,241,5,-16,-3,146,-46,-78,-7,0,-6,-25,105,135,9,-21,2,-26,-58,-127,1,18,-3,-25,56,82,2,-14,4,52,-66,-88,-2,9,1,41,73,80,-2,-7,-1,33,-45,-74,left
28,153,52,-497,-179,-348,-21,26,-35,466,103,70,17,-30,-15,-152,-175,492,-3,-74,-30,427,386,389,-1,-70,-8,-132,-358,186,1,-105,-2,-568,77,309,-7,-52,17,570,109,-457,-2,-33,31,-142,-34,-59,-24,17,-7,227,-68,-560,-23,7,-13,-315,100,-259,23,61,14,-180,162,-118,24,35,-6,257,-210,-290,-2,41,-10,-70,-101,104,-4,39,4,298,104,-75,3,12,-1,-243,114,23,0,48,12,-257,309,207,12,4,17,66,-259,43,-20,16,-3,90,112,105,11,-23,-1,17,-186,265,-13,-12,-12,118,31,-50,11,-31,6,-183,29,211,-11,8,-9,216,-149,-197,-9,-22,-11,-108,80,60,3,-8,10,-40,44,34,5,7,7,25,-54,-73,3,-10,0,-8,-24,90,1,-2,-1,35,8,-113,0,-1,-6,-50,22,84,0,11,0,72,-12,-55,-1,-5,-1,31,31,-17,left
3,-155,-25,173,-215,505,-23,-13,10,76,24,-151,2,-19,-1,-290,110,-282,-22,40,-9,118,-63,-471,10,25,4,-34,113,-193,31,45,8,-154,123,-97,-3,40,-1,-77,-59,38,19,34,11,271,-45,-146,-4,19,6,-300,224,149,-7,46,17,-38,20,8,0,5,-1,376,-223,-86,-4,0,7,-202,150,590,-4,-21,-13,-107,5,-78,7,4,4,-114,-159,425,-38,-28,-30,299,-72,-268,15,-6,19,-221,151,364,4,-5,-3,252,-67,-262,6,-8,3,39,23,139,3,-20,3,-97,-65,-42,2,-2,-3,100,35,-174,6,-1,1,-67,-53,1,-7,2,-4,34,8,41,-3,-8,-1,-51,1,22,-2,1,-5,-65,48,35,6,15,3,32,-39,-117,-2,-8,0,-20,24,83,-3,6,-3,12,-26,-57,2,-6,3,-46,-8,32,1,11,3,3,38,25,2,-13,1,25,-13,-17,left
8,166,20,-5,18,-102,18,-44,28,-182,-357,398,-8,26,-29,-10,257,320,15,-68,-25,406,-216,-142,-39,-73,-36,40,352,480,41,-108,12,-379,23,-132,3,-14,10,405,-75,-226,-28,-60,6,-166,-199,-302,-28,-11,-10,17,-22,-369,-9,56,-6,-246,195,-334,18,40,-3,122,123,-175,19,58,11,-11,-59,66,2,27,1,335,-140,-59,-7,42,11,-32,170,13,7,0,22,-101,37,182,-10,39,-1,-282,187,21,18,4,22,144,-190,-61,-25,-4,-18,-274,31,470,15,-23,1,45,-113,-248,-14,6,-12,-73,-11,224,8,-22,-1,277,-81,72,-2,-9,-6,-47,26,5,-2,-11,-1,118,44,-99,0,-2,1,30,-20,41,-4,-15,0,24,7,20,2,0,-3,-44,7,-138,9,3,-3,-127,49,87,2,2,1,27,-4,22,-8,-8,1,-49,-6,-3,-1,-4,4,48,-4,-74,left
17,161,20,-134,-210,-176,4,39,13,410,-104,518,3,-116,-11,-386,5,95,-17,25,-20,281,325,469,18,-110,-18,-166,-227,228,-15,-155,-45,240,150,-328,37,4,32,-147,161,-8,4,-29,20,-12,-537,-536,-60,-22,-32,34,-7,-503,-5,73,14,-264,403,-143,12,44,-2,-17,10,-170,20,69,13,37,-8,211,-5,30,-8,426,-29,-494,-8,45,6,-312,347,440,11,23,26,168,-16,-64,-3,11,5,-188,45,183,5,-11,21,106,-239,2,-19,-14,-17,-348,-33,270,13,1,2,246,-31,-367,-13,-12,-15,1,-47,356,0,-22,-7,-178,79,-25,6,9,0,153,-2,19,7,-16,13,-15,-9,65,1,-7,4,120,-62,29,-5,-1,-9,-101,-74,-19,-5,3,-12,58,118,85,11,-13,2,39,-6,-25,-1,-6,-2,-179,-30,47,-1,6,-5,-269,149,214,11,12,12,213,-144,-270,left
17,158,21,-316,-7,-517,-22,102,4,515,21,598,22,-149,23,125,-304,-206,5,-12,-41,-141,192,1071,-6,-132,-18,51,-287,-154,-28,-42,-40,385,383,-4,14,-72,-4,-381,294,4,42,-27,46,-295,-134,23,-32,-27,5,746,-663,-1030,-55,5,-13,-217,60,-195,14,40,-8,-372,385,-267,20,93,10,-169,-136,91,0,65,-6,597,62,-203,-7,26,-1,-133,302,249,-2,19,21,-347,38,-95,21,36,18,-65,57,70,-2,27,19,136,-151,465,-27,-35,-30,-227,-78,123,29,0,10,354,73,-221,-23,-11,-23,3,-89,221,9,-53,20,-246,-21,-54,-6,10,-8,219,63,-74,3,-10,6,49,-84,7,-1,-14,0,-125,5,7,7,7,-1,-5,-6,21,-3,2,-8,-29,-47,-11,-1,2,-6,-34,26,29,-4,-2,-3,151,30,3,2,-2,4,-52,5,-38,0,3,6,-66,5,51,left
27,-152,-18,-6,-7,848,-8,-10,-3,-19,59,-216,-10,-29,1,340,-186,-542,-32,17,-27,260,43,-339,-13,4,10,-616,169,-234,18,72,10,-132,158,-145,35,59,19,-146,-109,225,-3,37,2,592,-155,-446,7,36,12,-463,80,284,-1,36,12,289,47,-134,-10,9,4,-329,66,250,-7,-3,-3,431,-251,-120,-24,-20,-21,-227,143,324,10,-10,1,171,46,131,8,-15,-2,-122,-66,141,-6,-15,-3,85,14,97,11,8,2,-80,-26,187,8,-19,12,190,-112,-52,-7,-20,3,19,21,-266,-7,1,-6,-216,26,-84,2,12,-4,-109,-10,19,-1,3,-3,180,21,-45,-7,5,-8,59,36,77,5,-15,6,-75,-54,-23,-1,6,2,-11,56,10,3,4,-2,-114,-28,17,2,6,4,79,21,19,-3,-6,-1,56,-27,-31,0,3,-1,9,13,42,-3,0,-2,-19,19,-40,left
19,-155,-19,389,192,658,-8,-32,20,-51,-323,-511,-18,-16,-10,-365,18,210,-24,9,-13,164,-121,-491,5,38,-1,-386,237,55,23,51,10,159,-155,-223,8,51,-4,-204,107,187,6,40,12,280,1,-198,-16,18,-1,208,-46,-329,8,15,15,-227,293,181,2,15,5,-257,12,-165,22,48,21,105,161,180,-18,-14,-9,253,-457,84,-17,-10,-14,-337,177,387,5,-24,0,593,-386,-183,-18,-9,-21,-146,281,369,11,-31,14,-42,-207,-68,-8,3,-7,-56,244,-5,8,-16,11,-44,-82,-113,-4,15,-2,-87,78,59,1,-4,-7,154,-98,-36,-3,-13,9,28,34,-20,1,2,-6,-87,56,-40,9,5,1,-93,-45,44,0,1,-3,155,-4,-31,-6,-8,-2,-104,9,27,0,-5,0,-53,-29,-45,2,10,1,-36,69,48,3,-5,-2,141,-30,-22,-9,-4,-3,-32,42,-32,left
19,143,57,-817,132,628,36,-20,-29,1349,-368,400,-17,-145,-40,-3,-44,-351,-12,-59,-32,-173,229,203,6,-57,11,-155,-130,-411,-15,-14,-3,-312,2,-23,-6,-5,6,122,-28,-352,-29,25,1,53,66,-327,11,31,21,-170,154,-83,20,54,3,62,-133,-109,-2,22,-1,106,51,-237,-13,44,3,-19,173,138,7,1,16,159,-42,-92,3,17,3,-427,221,292,3,39,5,435,-113,-338,10,-3,1,-551,-21,859,-7,8,5,603,-122,-455,2,-29,-14,-363,-180,438,-3,-15,15,236,127,-230,-14,-5,-16,-179,-117,244,-7,-24,-4,4,60,-92,2,-11,-4,-115,37,30,4,14,-1,91,61,-26,6,-12,5,11,-26,-38,6,1,3,59,2,24,-4,1,1,-29,-43,11,-5,-13,-2,81,-10,-48,2,9,-5,-54,28,-80,2,1,-2,-25,0,32,11,7,-2,-69,36,88,left
1,155,36,-233,-220,-59,-3,-16,-22,282,113,314,26,-36,1,-308,64,232,-1,-24,-24,888,277,-303,4,-91,2,-431,-586,376,-26,-54,-21,-281,428,137,6,-70,29,491,-188,-414,-10,-33,-8,-256,-37,-114,-21,-5,-9,-42,-53,-286,-9,45,-11,-40,112,-287,28,21,15,-162,102,-103,4,73,8,248,-187,-31,-6,9,-4,172,49,-104,-8,51,0,44,66,249,25,7,11,-110,288,68,-7,11,17,11,-205,94,-5,9,-2,-274,-19,-99,-28,3,-4,139,-142,247,28,-4,29,-84,13,-222,-21,-15,-25,-101,151,143,5,-24,-3,26,-50,27,-4,12,0,-177,107,77,8,-14,2,317,-158,-25,-6,-17,-10,-83,54,23,10,0,0,-76,-39,15,-5,-2,-7,59,70,-29,2,10,1,66,22,23,3,-9,2,27,-14,-65,-1,3,-1,-37,-38,52,1,3,5,87,-20,42,left
24,157,36,-700,-140,-223,-5,6,-27,633,-34,132,1,-72,-5,113,190,519,7,-76,-8,-134,-206,278,-16,-69,-20,48,182,121,-6,-83,5,87,80,-207,5,-34,20,-136,29,16,-16,7,-8,137,-330,-477,-19,2,-29,270,-29,-381,-5,59,-10,-282,329,-27,31,9,9,-142,-17,-220,4,72,13,145,-112,201,13,2,20,-59,175,-326,-11,36,3,-97,-166,175,2,11,7,-107,258,-153,0,27,15,1,-141,160,-12,7,-22,-53,128,120,12,11,20,-6,-79,151,-19,-6,-13,149,72,-175,22,8,7,-168,-135,361,-4,-26,0,304,7,-142,-7,-16,-7,-63,-77,106,7,-13,0,-59,35,-35,-2,2,-7,-22,-16,39,-1,-2,2,229,9,-10,-2,-18,-3,-86,18,-11,7,-6,1,-86,-23,27,6,9,-4,39,71,17,-3,-1,1,-48,-69,-140,-6,-9,1,-55,-26,69,left
17,-163,-16,-41,164,692,-6,17,10,76,-276,-403,-15,-8,-14,246,-43,-366,-17,16,-11,-114,144,-239,29,44,23,-358,61,-58,20,51,-2,351,-142,-321,-3,51,-2,-192,95,276,-4,19,6,357,-126,-81,-8,9,4,-158,226,128,-10,11,11,148,-180,-172,-11,11,-10,-482,331,682,-6,4,3,257,-100,-517,13,1,11,-391,8,544,6,-19,4,627,-125,-497,1,-7,-6,-373,34,360,-6,-12,-4,75,-16,-108,4,-5,-2,-69,-62,114,2,-15,-3,8,-11,-3,-10,0,-4,105,43,17,7,-7,2,-63,2,-46,-1,2,-4,24,-27,53,0,-2,-1,14,22,-23,2,0,1,27,3,-54,-2,2,2,-29,6,9,1,0,4,-68,-58,10,0,1,1,129,17,-23,2,4,-3,-70,19,1,-1,-4,-2,17,-19,34,-5,1,-1,14,-8,-34,6,2,1,30,13,50,left
5,167,35,-430,-40,-145,-1,-3,0,578,58,128,8,-50,-10,-492,-332,511,12,-44,-26,653,465,85,4,-61,-13,72,-291,-70,-4,-120,-21,-334,0,106,-3,-12,5,-5,235,-44,7,-58,7,-105,-179,-303,-30,9,-12,425,-184,-191,-39,1,-17,-14,-58,-539,22,57,11,-713,598,493,30,53,23,399,-398,-226,-2,25,-2,-143,173,-285,3,28,26,-23,42,-90,-1,27,-2,-155,67,-165,-3,40,6,-239,184,421,3,26,12,385,-191,-324,-16,22,-9,-146,46,358,9,-19,16,490,-134,116,-7,-28,-12,-200,17,50,-4,-20,-4,53,3,-2,6,-13,-4,-177,-69,92,-2,2,-12,40,21,143,-2,-24,2,166,-18,-59,-1,-8,0,-85,9,-67,10,-7,7,-137,18,13,-3,0,-4,88,-42,-46,0,15,0,-57,46,-36,0,-2,2,52,-28,26,-2,-5,4,-57,4,-6,left
5,156,34,-265,-156,-97,2,55,-34,246,87,379,16,-65,17,367,-231,264,-4,-78,-27,-453,271,27,9,-89,-5,107,-95,231,2,-55,-11,117,329,255,9,-35,3,412,-371,-321,-21,-70,6,94,-185,-506,-33,-2,-22,-301,42,-299,-8,52,-2,-213,199,-227,8,33,8,-43,159,-178,11,52,8,-186,24,269,9,28,9,344,-29,-326,-2,26,7,2,34,127,-4,15,15,-90,34,-127,-11,24,-8,-71,29,121,16,4,14,-345,135,-62,-5,18,-1,297,-97,28,-2,-9,-8,-300,-134,244,6,-15,1,292,41,-156,-8,28,0,100,1,273,1,-44,3,183,-216,-46,-10,-13,-12,-358,149,173,-2,-2,-7,206,-68,-41,0,-7,2,-83,46,112,1,-16,0,69,-46,-79,3,-1,-2,-120,87,46,7,-1,8,-30,6,13,-4,15,-4,-49,6,37,5,-1,5,175,-48,-98,left
-4,157,11,-440,84,140,34,1,32,373,-216,99,-13,-33,-25,244,-68,375,17,-61,-6,-23,56,206,-1,-88,-24,162,-11,14,-36,-49,-45,-307,-13,-57,29,-46,23,-232,185,-42,6,-39,19,347,-145,-340,-23,-15,-3,-105,-24,-307,-13,37,-10,3,97,-417,13,27,7,-88,97,-182,0,53,3,-79,-4,-128,4,29,6,14,-46,96,-6,25,3,231,-67,-223,1,20,6,-228,304,183,-2,27,8,92,86,-47,16,23,3,-286,-97,300,-2,-2,-1,405,-151,-66,-10,-7,-11,-368,94,241,6,14,18,139,-65,-209,-12,-12,-8,188,-116,290,-4,-33,1,-275,82,-36,2,5,0,96,-81,99,-1,-18,-9,67,-23,-40,2,0,-4,75,29,79,1,-13,-4,-60,-15,-47,-1,6,3,62,85,7,5,-3,7,49,-37,-2,-7,-4,-3,-136,-39,7,4,-2,0,24,24,-10,left
34,157,45,1116,-900,804,-45,-96,-21,-863,251,-246,-5,-87,-25,67,488,167,6,-47,-29,-499,-85,227,22,-60,-20,-126,358,-153,10,-19,9,361,-104,-282,6,-17,5,1,-26,-209,-48,-2,-12,191,-171,-423,-11,25,-6,-216,301,-196,27,61,18,-104,63,172,14,29,21,159,69,-544,9,42,14,-199,75,-9,12,59,16,24,16,-316,-9,5,-1,6,-167,336,-4,31,4,-348,105,257,-2,11,10,473,-308,36,-16,-21,-16,-83,-52,151,-12,-23,-8,-49,129,109,7,1,0,76,-2,93,2,-17,-1,108,-68,-30,-6,-12,-1,-98,-28,174,-5,-18,-11,-25,64,-150,8,2,5,-1,21,100,5,-12,5,70,-58,-66,2,-2,4,-96,-6,16,-4,13,-3,35,67,11,8,-10,2,39,-60,-80,-6,9,-2,-58,13,73,0,5,-3,79,-33,-17,-2,-3,0,-37,50,2,left
18,152,33,-252,-79,202,-2,11,-2,191,-152,342,9,-12,-17,-38,32,493,-6,-71,-20,442,77,-305,13,-45,-2,-354,231,370,-3,-70,-18,137,-74,-473,13,-64,0,-210,106,-135,25,-41,18,321,6,-21,-25,-26,0,144,-390,-380,-29,-29,-16,155,-156,-470,-23,39,-11,-369,295,-164,20,48,18,-304,174,-132,11,80,7,90,-153,-16,2,26,3,204,38,-32,-7,38,7,112,3,201,-29,1,3,-74,209,-203,30,37,11,-218,69,259,-14,-9,-1,33,-47,-60,4,-10,1,-220,-100,391,-4,-4,6,327,-8,-22,-11,-31,-10,-104,-156,175,8,-17,-11,-16,139,28,6,-15,7,-10,-55,-58,-6,3,-14,-10,-3,34,2,4,4,11,-14,-14,-2,-18,0,16,-30,-26,-1,-4,-2,-23,4,-27,-1,22,0,40,57,70,1,-11,0,-65,-77,-77,2,9,0,103,77,64,left
32,157,42,-78,-231,32,-28,-17,-9,351,-7,244,-5,-48,-12,-603,-67,69,-5,-29,-22,240,413,224,29,-63,-1,106,-298,190,8,-77,-28,-313,216,37,14,-32,12,419,66,-115,-18,-52,0,0,-339,-365,-34,-18,-2,-35,109,-251,-5,8,7,21,13,-496,-4,54,-5,-367,200,-68,26,58,13,111,25,-173,11,33,-3,126,-63,-141,-3,52,10,-123,13,271,0,9,-10,255,90,-342,-7,53,14,-604,180,621,14,15,16,811,-239,-478,-19,-11,-1,-250,75,744,17,-22,8,-78,-142,-7,-20,-39,-17,4,56,-84,23,-1,16,62,-73,177,-15,-13,-16,146,-128,-38,-5,-35,-1,-80,-62,-52,-7,-3,-14,-205,101,40,2,9,-2,93,-16,-30,1,-8,-4,-193,43,-50,1,11,0,202,17,14,-2,-4,6,-72,25,30,3,7,4,15,-21,-36,1,-10,2,-60,30,4,left
9,164,5,-369,-21,246,34,-45,12,1010,-265,450,-28,-53,-35,-270,-200,-38,-1,-128,-4,-369,306,268,-4,-17,-13,273,-151,-512,-2,-72,4,-597,519,163,5,2,28,377,-424,-427,-14,11,-13,42,92,-264,-21,18,-18,109,8,-401,7,51,5,-451,327,92,19,35,14,91,-116,-263,1,53,-8,248,51,148,5,14,8,69,34,-161,3,37,12,-249,35,545,7,2,28,407,-175,-762,-12,24,3,-567,138,815,4,-18,6,180,-213,-165,-15,-1,-20,-123,46,220,5,-8,3,136,-38,-91,-3,-13,-10,56,-9,145,-6,-27,-10,100,9,46,-1,-4,5,-51,59,8,2,-2,-3,15,-29,34,0,-7,3,-20,-10,-17,4,-4,2,59,-46,-67,-7,-2,-4,-34,65,12,8,-1,3,14,27,-42,-4,9,-6,-52,15,16,5,-5,5,55,-39,-42,-4,9,3,-15,35,97,left
23,170,22,-354,74,-31,36,-37,16,888,-439,387,-32,-74,-34,-439,91,54,2,-83,-27,-129,249,416,-14,-62,0,440,-148,-135,-8,-73,-4,-488,-53,-163,6,-5,1,-72,117,-119,-3,3,-8,242,-206,-449,-37,13,-17,39,20,-377,21,49,24,-527,455,166,10,39,6,249,-210,-381,-3,63,7,83,86,214,6,10,6,60,146,28,21,43,22,-553,111,221,-3,23,-1,983,-463,-392,-14,-24,-23,-332,107,358,-4,-8,9,-63,173,-125,7,-1,11,-69,-36,154,0,-5,1,1,-36,-84,-1,-6,1,-154,-63,271,-12,-13,-8,138,-45,-195,11,-11,6,-19,30,231,-8,0,-13,32,-75,-95,8,-15,1,97,89,48,-6,1,-6,-66,-42,-70,7,-7,4,19,8,13,-10,8,-3,-3,62,6,8,-2,2,22,-75,-74,-3,1,1,-36,57,92,-1,2,3,5,-76,-76,left
8,-157,-29,141,-5,491,-15,12,-7,101,-40,-293,-11,-26,3,-148,56,-353,5,55,6,-256,170,-198,26,45,15,-81,-10,-208,8,46,3,254,-105,-91,4,22,11,-146,40,9,-12,40,-11,99,34,-94,2,13,-1,-195,1,-9,-14,51,3,-26,236,453,23,-14,28,184,-218,-116,-6,2,5,156,-175,577,-13,-47,-12,196,-42,-72,3,-18,5,-122,-173,327,-16,-17,-25,-99,129,-335,4,-3,-1,17,32,137,-12,-12,-6,-47,86,-166,6,14,1,-59,84,64,0,-13,-2,-18,-9,27,9,-13,14,147,-14,-78,-4,5,1,-152,-21,-36,5,7,-4,-16,36,21,0,0,4,126,-44,-34,1,-6,3,-36,-43,14,-1,1,-3,-117,-58,-44,-7,20,-7,154,144,121,6,-10,3,-47,-59,-81,-4,-5,-2,-59,-15,27,2,5,-2,10,30,-25,-1,0,1,75,16,16,left
14,-160,-28,47,-123,582,-20,-8,-4,351,-85,-566,-19,6,-16,-313,161,-314,19,57,16,-257,208,23,24,38,14,255,-10,-302,5,41,14,-162,-74,44,-1,10,0,246,-3,-273,7,48,12,-468,134,371,-6,7,-3,618,-151,-292,-6,29,14,-919,256,417,10,-12,3,449,-324,-142,-24,5,-20,-23,71,367,10,-30,11,-42,-31,31,-7,2,-5,233,-26,80,2,-29,0,-98,-67,-15,-5,5,-5,-110,60,12,6,-18,7,126,-50,-6,-5,24,-10,-104,15,58,0,-19,-5,122,2,-66,5,1,7,-20,15,42,-6,2,-6,9,18,-34,5,-2,9,-1,-3,28,-3,-5,-2,-24,-17,-55,2,11,-1,57,12,32,-3,-4,-7,-17,-27,-3,6,-5,8,-106,25,-4,-6,19,-7,109,-3,15,5,-20,7,-13,-36,2,-5,7,-3,-43,37,0,8,-3,6,68,-29,-69,left
3,-155,-33,244,-213,325,-25,-16,5,21,-39,-350,-7,12,-11,-203,180,-312,15,55,7,-313,262,-26,24,38,20,15,-99,-170,3,49,-11,223,-58,-55,-13,29,3,33,52,-22,3,27,15,-224,176,336,3,-3,9,208,-143,-300,-12,25,-7,-464,215,481,-2,2,7,319,-252,-313,10,7,6,-183,139,478,-2,-19,5,509,-230,-214,-4,-25,-9,-146,-36,214,-5,-25,-5,147,-48,-16,-5,-6,-14,-268,136,7,6,-13,9,51,-60,3,-6,12,-3,-5,50,65,3,-5,-1,-31,-23,-40,3,1,4,19,56,-18,0,4,3,50,-76,-23,2,0,1,-64,39,36,-4,3,-8,21,-10,-48,3,0,2,27,-16,48,-4,4,-6,10,2,-42,3,-7,4,-71,7,7,0,1,5,111,12,-8,2,7,-3,-58,-27,-19,-4,-5,-1,-19,34,47,3,1,0,-17,-11,-6,left
45,-157,-11,177,-188,540,-39,-10,-21,262,-174,-434,-37,-25,-18,-87,107,-463,0,42,2,-500,496,-213,39,70,27,-128,-18,57,23,58,11,346,-122,-382,-13,45,4,-132,86,483,14,1,13,31,-135,-290,-6,73,2,-347,327,539,11,-29,15,862,-517,-311,-28,2,-15,-433,213,245,-2,-24,-5,154,-96,-49,-3,4,10,-152,133,267,0,-32,0,55,-254,-70,-3,12,-1,-328,227,148,0,-5,-1,321,-156,-103,-6,-20,-11,-284,30,73,4,3,2,256,40,-40,0,-4,-3,-81,5,-2,5,-10,0,11,-14,15,-2,12,-4,11,23,-14,3,-14,7,89,-39,-57,-3,2,0,-123,23,25,0,10,-4,77,42,83,3,1,1,-122,-25,-78,-6,4,-1,133,-39,-22,2,-16,3,-94,-28,22,-5,18,-7,45,30,22,7,-12,5,85,-32,-35,-4,3,-1,-39,78,47,left
17,159,31,-269,-36,192,24,8,7,419,-191,164,-9,-46,-21,-129,-81,371,15,-61,-19,1,82,359,-9,-106,-22,843,-9,-44,-17,-92,-14,-693,2,40,11,-59,17,-164,-28,-527,-24,21,-13,142,159,-398,-2,5,-6,36,8,-552,-3,52,7,-455,274,-28,6,32,9,69,-38,-365,18,62,19,-266,143,126,3,15,9,410,-203,-201,0,44,6,-566,200,388,-3,14,-1,642,-280,-367,-2,22,-2,-427,292,462,-6,4,16,372,-344,-117,-10,2,-14,-169,169,182,10,2,12,144,-135,75,-18,-22,-8,67,-52,164,3,-8,1,159,54,-105,-4,-24,1,-156,-76,163,-4,2,-5,-26,50,24,2,-7,-1,11,-1,63,-9,-6,-13,0,29,-95,16,-10,15,-54,-50,80,-4,14,-9,25,21,-12,-1,-15,-1,5,23,-23,5,-3,6,14,-23,4,-5,8,-3,7,3,-73,left
0,156,8,42,0,245,33,-36,5,184,33,558,5,-58,-18,51,-79,-23,5,-73,-25,-59,1,215,13,-113,3,100,-69,-313,-14,-78,6,-426,-87,-61,-34,-2,-4,437,-68,-498,-23,-9,-22,9,-26,-658,5,81,7,-779,381,252,14,52,4,186,89,-382,10,75,24,-18,-104,227,11,26,12,287,53,130,-15,26,-13,-97,107,-8,10,19,28,-171,144,-278,-10,39,8,91,-85,163,15,-2,5,68,-159,247,-10,-13,-4,127,-135,-47,-5,-30,-4,7,-89,359,-17,-21,-19,-163,114,-173,14,-10,8,-36,-60,198,-5,0,-3,200,-16,-52,-1,-23,-5,47,26,-54,0,-2,2,-135,17,45,4,-9,-3,-46,-20,-59,1,5,-1,121,48,111,-5,2,3,32,28,-108,7,-3,8,-55,-75,-14,0,10,-6,27,11,17,-9,-8,-7,-25,24,-55,2,-4,5,-2,20,-3,left
3,161,48,-449,-117,-70,8,16,-13,676,-191,454,-13,-47,-32,-76,79,-17,29,-58,-4,5,-1,602,-18,-59,-23,34,190,-496,7,-87,-21,-240,-8,297,21,-61,25,-7,122,-130,-3,-32,6,-103,-71,-156,-29,3,-4,396,-212,-457,-21,-5,-27,-97,74,-393,4,70,17,-468,301,131,33,27,11,-77,-109,-533,-19,78,-4,320,-115,221,-8,10,4,138,288,-238,7,40,22,-454,28,410,14,28,7,504,33,-11,-4,14,1,-209,-23,503,34,-17,21,388,-379,-331,-38,12,-24,-272,40,460,5,-57,7,289,-175,-235,-17,2,-17,-455,229,217,5,-15,4,76,-39,-187,-1,-8,-2,-66,21,93,0,-4,-10,76,56,-31,6,2,16,131,-5,-41,-2,2,-7,-167,-8,-45,1,-2,4,85,-14,74,-7,6,-9,-42,-12,-42,3,-10,4,19,-11,15,2,1,3,63,56,-4,left
41,-154,-30,282,-122,601,-18,-50,13,-150,-173,-297,-28,34,-30,-212,107,-231,-6,6,-2,191,69,-457,5,38,16,-181,115,-63,2,53,2,-30,4,-50,11,41,5,115,-56,-42,-3,39,7,244,101,-18,7,-6,16,-135,325,5,10,65,17,-522,122,-67,6,33,12,224,-219,267,-10,-27,4,265,-200,134,0,-27,-6,-406,-88,173,-13,-8,-17,266,-145,79,-4,-48,-7,60,14,-6,0,-1,-5,-275,69,77,-1,10,-4,125,6,-61,1,-17,2,3,-21,11,-3,7,-1,18,90,-49,5,14,-1,-25,-15,76,-3,-7,4,70,-9,-84,12,2,2,-4,2,75,-1,-10,1,84,-76,-37,0,6,-11,-168,-21,15,-8,9,14,206,54,-39,-5,-13,-2,129,-56,-63,1,-1,-1,-107,48,79,-1,-6,-10,78,-22,-116,9,14,1,-297,74,148,-11,-8,3,99,-60,-51,left
34,149,54,-390,-72,-25,-7,36,-15,384,31,478,3,-80,-37,151,-269,82,-5,-56,-22,-15,420,139,8,-88,-11,344,-179,-201,-18,-96,-2,-423,-39,153,7,1,4,-86,93,-44,-13,-20,13,411,-173,-641,-11,-10,-10,-106,3,-250,-12,55,1,-435,304,-104,19,34,2,-3,-22,-275,2,78,12,113,32,170,-4,2,5,362,99,-338,10,35,8,-619,92,445,15,38,23,412,95,-391,-18,26,0,-199,-49,433,15,-53,6,-89,-248,-48,-16,21,-8,-83,66,325,1,-3,-14,352,-183,-51,-3,-24,1,-28,25,182,-2,-25,7,51,-57,-108,-11,1,-16,-85,75,84,9,-16,7,6,-19,-54,0,2,-1,-68,8,33,5,1,-4,33,13,-10,-5,5,-3,0,49,74,5,-8,6,0,-25,-63,-4,4,-2,10,-1,11,1,3,1,17,-28,-30,-2,-1,-3,18,39,37,left
37,-152,-35,335,-225,587,-20,-30,1,-387,106,-5,-17,-21,10,367,-194,-736,-23,17,-23,-56,73,-369,1,51,21,-377,346,-172,23,22,9,44,-56,-310,2,94,8,-307,60,354,21,44,4,721,-57,-332,10,24,8,-881,282,542,17,56,29,678,-78,-313,-37,-10,-17,-101,-201,483,-7,-33,10,-26,27,54,-15,-16,-12,-136,-57,109,12,-11,10,206,-101,59,-11,-26,-13,6,-20,-3,5,-9,5,-167,-2,201,-5,-5,-11,-33,37,-133,8,-7,-2,88,26,22,1,-8,-4,-72,-19,-8,-4,1,-3,-54,49,-11,1,9,0,32,-2,-36,1,7,4,-8,-6,57,-2,2,1,81,16,-86,1,4,5,66,-5,-27,1,0,-4,-58,-23,51,2,-10,6,-20,-15,-37,-2,23,-6,7,33,39,1,-20,1,56,-38,-19,3,-12,7,-10,27,29,-3,14,-7,-77,-37,-59,left
22,162,46,-689,163,395,29,3,14,801,-550,-185,-17,-48,-40,-55,60,318,5,-25,-11,126,-49,257,-4,-61,-21,108,260,19,-9,-47,-18,26,76,392,-7,-91,-5,-48,-79,-205,-27,-79,-13,218,-68,-466,-9,-10,14,-102,147,-173,-11,11,6,-106,4,-588,28,43,20,-447,97,160,20,61,18,196,-181,-642,8,49,-14,-209,117,352,-16,28,-6,329,-140,-592,-17,46,-4,-43,276,265,7,11,18,-110,207,3,0,32,7,-591,57,310,-1,28,8,697,-267,-193,-10,-27,-5,-90,32,342,-9,-5,-2,284,-58,191,5,-48,14,-186,1,144,-2,-10,0,226,-92,-154,5,-24,-9,-267,-45,85,-2,6,-5,-94,30,67,3,-2,-8,42,-80,-20,-1,5,-7,-1,53,49,-1,-12,4,161,37,31,-4,-8,-2,-223,6,-134,2,14,2,149,-8,52,4,-14,8,48,-28,-79,left
55,-152,-10,245,-214,640,-38,-34,-2,-29,-128,-448,-27,-15,-17,111,-14,-612,-12,66,-9,-522,425,-103,34,40,14,70,6,-433,-3,90,-10,-132,-47,335,0,20,5,322,230,-427,-6,49,6,-92,18,700,22,-5,24,213,50,-159,-14,17,7,-322,-46,254,0,23,2,3,-74,82,-3,-25,15,35,-301,233,-9,-39,1,158,114,-76,6,4,-22,-525,70,170,-4,-19,-6,97,70,8,2,10,-12,147,-73,-32,11,-15,8,204,-51,-106,-6,-17,2,-93,-44,26,-12,10,-14,-194,90,91,9,0,7,213,4,-112,4,5,5,16,56,42,7,1,9,-123,-37,67,5,6,-7,7,-94,-65,-7,-2,-2,232,24,-20,-3,-16,2,-63,-82,-7,-8,7,-9,-153,96,30,7,0,8,200,-39,-123,-1,-7,-4,-217,15,92,0,17,0,94,10,-8,-3,-5,-6,18,-14,-47,left
2,152,39,-284,-236,108,15,4,-3,542,-223,122,-18,-63,-33,53,326,110,19,-54,-12,-529,82,389,2,-57,-3,51,130,237,6,-52,-18,27,272,-77,14,-68,15,213,-237,-151,-35,-82,22,-123,-70,-389,-6,50,-6,180,-71,-350,-4,13,-6,-25,-23,-609,1,69,-5,-156,184,-2,24,48,15,354,-152,-499,-16,46,-15,-102,70,233,27,14,15,-142,85,-133,-1,47,12,-226,-82,715,-23,1,6,-62,121,-228,7,21,1,-190,18,699,-7,2,-8,788,-334,-334,-1,-87,3,-259,47,197,-8,22,3,-249,18,139,-13,-27,-10,210,162,41,6,2,10,-120,-99,-10,2,-7,-6,-26,6,-246,-6,9,-10,134,51,166,11,-18,2,-2,-74,-80,-7,3,-14,-101,73,23,2,9,1,-20,35,43,0,0,6,-8,28,-10,5,-10,14,94,-66,-58,3,6,0,-115,76,51,left
2,163,12,-379,-71,382,56,12,18,1195,-397,60,-42,-67,-43,-163,233,173,42,-117,-1,-812,215,490,-18,-68,-15,627,-213,-747,-17,-94,-38,-529,-9,209,-26,-20,13,-8,116,-216,-17,1,0,35,-4,-346,3,14,9,26,54,-91,-2,45,-9,-129,-63,-405,13,57,26,-89,196,72,29,32,18,161,-200,-316,1,39,-8,136,139,142,-9,33,12,-56,60,-126,-3,21,-17,151,122,-107,-2,-3,21,-180,30,380,22,18,8,45,126,-45,8,16,-10,-232,-170,489,-8,-22,11,544,-205,-251,-14,-28,-13,-230,-49,232,1,-9,17,-127,-85,57,-11,-14,-14,87,-13,-72,-2,4,0,-89,49,80,9,-12,-1,54,-78,-65,-9,-2,-11,18,77,52,-1,-4,-4,65,13,-49,-1,12,-3,-56,38,43,6,-14,6,68,15,-31,-5,1,5,-81,-35,-21,4,4,-1,92,41,-21,left
37,148,61,-448,-122,225,0,48,-33,116,-284,256,-12,-45,-23,877,84,190,4,-88,-9,-170,-17,-19,-6,-80,-15,-100,66,90,-29,-84,-15,-157,-29,-140,8,-43,-4,-410,289,195,-7,-38,5,432,-191,-604,-25,10,-2,-215,93,-108,13,17,16,19,2,-305,-4,55,-7,-215,175,-170,15,35,14,-131,42,-64,-1,51,-9,554,-58,-333,19,52,17,-468,114,449,-1,14,17,391,-95,-293,7,42,-1,-418,-183,455,-27,-18,11,368,195,-36,16,-25,22,-163,-302,-189,-18,39,-22,-361,523,379,14,-32,-10,439,-347,-140,-6,-8,-6,-91,179,242,-4,-26,-1,228,-132,-280,2,3,4,-266,14,371,6,-9,3,240,-20,-214,-10,-10,-6,-61,45,-72,5,6,0,-55,-89,157,0,-6,1,59,14,-59,-6,4,-7,-35,13,70,4,-5,4,-6,-5,-42,-1,0,6,-135,-2,-44,left
6,158,36,21,-77,-28,7,0,-8,-50,-31,368,17,-5,-8,78,-97,324,2,-75,-40,231,179,-249,-8,-35,-7,240,216,194,-5,-53,-22,67,-289,180,3,-99,-14,-50,153,139,22,-59,50,-247,104,-211,-9,-17,1,-6,-502,-524,-29,23,-14,-108,171,-319,-12,36,0,180,-52,-610,4,48,-4,-380,323,102,24,61,4,142,-173,-23,-17,26,6,154,114,-134,18,24,20,-152,-29,388,-28,2,-8,197,-46,-225,9,25,15,-603,411,565,1,0,8,937,-328,-705,-15,0,-9,-632,58,765,7,-28,-2,22,-68,-32,-2,-11,-3,104,-14,65,-4,-18,-11,60,34,15,6,-2,-1,-291,-8,158,1,-7,10,294,-76,-166,0,-7,-3,-159,7,67,1,-7,1,146,27,-42,-5,4,-7,-73,-31,-41,1,-7,-2,-9,9,35,2,9,4,24,21,-30,-1,2,-1,-53,-53,15,left
31,145,58,-295,-223,168,-25,13,-15,498,-84,108,-7,-26,-30,-432,82,90,-8,-22,-17,820,229,10,26,-79,-12,-651,-180,352,-10,-91,-29,20,229,-14,19,-56,23,10,145,5,4,-47,11,80,-128,-55,-40,-34,-8,312,-379,-678,-38,21,-20,252,53,-581,1,52,4,-531,524,108,45,46,28,-257,72,-273,33,72,7,-221,-242,330,-14,48,1,575,-240,-360,-12,21,2,-285,250,466,2,31,24,383,81,14,-24,-35,1,18,-50,-281,-5,9,0,-344,120,411,15,-6,-10,10,-82,-161,-1,0,-8,-2,-42,310,0,-22,-1,-59,-65,73,-5,-20,-11,124,-112,50,-2,-1,4,17,138,-31,2,-13,-4,-8,-20,-8,-2,-6,6,101,63,64,6,-12,6,-138,-99,-135,1,17,-9,55,22,46,1,-7,0,120,-29,-23,-2,-5,3,-209,-1,-47,3,10,-1,79,52,60,left
26,148,39,-172,-237,234,5,-9,-20,323,-123,92,-4,-45,-7,190,299,282,-3,-63,-31,-98,-89,-255,4,-120,-18,-284,-173,293,-27,-15,-27,185,278,-47,17,-58,13,-192,64,25,-30,-60,16,532,-439,-666,-35,-1,-11,-538,263,-331,11,74,16,-603,521,54,42,54,20,268,-164,-570,24,101,-1,-97,-73,375,-6,16,4,617,-77,-551,12,73,9,-283,261,999,17,-43,23,606,-523,-531,-32,-3,-10,-629,304,648,-6,9,-1,257,-145,-651,-13,-2,-12,-298,108,598,2,-2,13,336,-47,-317,-3,-7,-8,-316,-138,316,-4,7,-2,358,182,126,6,-52,6,21,-248,-120,-11,2,-15,-354,245,133,16,3,5,75,-87,-32,-2,0,-4,208,-51,-80,-5,-19,0,-61,44,-31,9,1,4,-55,-12,9,-5,22,0,82,8,87,-2,-25,-2,1,-52,-137,2,13,0,-149,113,64,left
21,-155,-8,333,-343,382,-34,-20,-15,127,-189,-618,-30,10,-23,-391,409,-125,8,49,8,-259,179,-186,39,53,15,-155,139,-127,13,55,17,290,-286,-21,-11,8,-1,-50,204,-197,4,49,8,-17,-52,386,4,7,11,247,19,-304,-20,17,-10,-75,61,371,7,1,10,-188,-51,225,4,1,16,0,203,-206,2,-4,1,-119,-70,494,11,6,-18,506,-372,-190,-10,-34,-7,-4,38,473,4,-27,-1,-20,-123,-179,-23,-15,-17,-80,143,108,12,0,10,-57,15,-139,0,-9,8,66,-8,-141,-1,6,-2,-44,34,64,0,7,-4,-27,-48,-27,-2,-3,1,40,36,-6,3,-6,1,-17,20,-104,1,15,1,-69,-6,75,-4,-17,-1,107,-20,-69,1,15,-4,-136,58,18,8,-4,6,56,-70,-32,-8,2,-4,0,50,82,6,-5,7,-17,-56,-86,-6,13,-8,11,97,57,left
16,155,36,-452,-91,-85,6,22,-5,288,-102,119,9,-27,-2,137,-20,622,-3,-82,-20,18,-75,93,6,-96,-27,4,150,311,9,-97,-3,176,-13,-70,-13,-59,8,411,-332,-566,-52,-35,-18,-375,262,-164,-6,17,7,-121,20,-378,18,66,5,-94,127,-329,-9,69,0,-43,160,139,18,13,8,-74,131,-417,7,56,9,-54,-149,461,2,14,13,391,-140,-651,-17,35,-16,-417,153,771,-2,-12,4,408,100,-416,22,23,11,-643,-155,412,-7,9,2,702,-102,17,42,-33,19,16,-32,-56,-37,21,-3,-286,32,335,-2,-47,-6,122,28,-399,-12,4,-9,-244,33,340,5,-5,1,14,-80,-64,-5,-1,-3,115,-22,64,-1,-7,-3,136,-29,-73,-4,-16,-6,23,131,50,0,-1,-1,-109,-88,-119,1,4,-6,-52,91,64,3,0,6,88,-23,20,2,-6,3,-120,48,23,left
24,159,34,-334,-19,184,9,-25,-4,241,-10,393,11,-40,-20,87,37,7,-12,-97,-53,312,-51,-11,14,-75,3,13,-156,-53,-7,-44,-2,223,130,-178,-18,-62,3,-272,-95,-143,-8,-6,1,-294,21,-79,-4,21,12,152,-112,-610,-10,69,1,-165,165,-168,12,56,10,64,-108,-76,6,40,-8,-165,437,-92,9,64,21,-7,-278,322,-5,15,1,-2,124,53,-7,7,11,-252,26,247,0,15,13,474,-254,-204,-11,-26,1,-67,162,72,20,-1,-1,90,-126,103,-7,-21,-17,-20,129,-90,1,-6,2,206,-193,129,-4,-21,-13,-166,106,71,-9,0,1,-102,-21,149,0,-14,1,28,-21,-63,-6,2,1,-80,79,16,11,3,7,89,-69,-28,-2,-8,-2,-23,-5,10,-2,5,-6,91,11,-15,1,-2,4,-17,32,59,0,-7,4,-66,-53,-77,-2,7,-6,6,33,42,left
29,148,49,-812,46,82,-2,-1,-30,1051,-337,-96,-3,-45,-26,-454,106,506,6,-42,-21,-36,281,205,-3,-72,-14,668,-213,-83,7,-79,2,-59,198,375,-14,-73,33,71,-317,-488,-32,-45,-8,-208,-156,-397,-24,-2,-15,-215,351,-198,13,66,2,-192,5,-349,16,49,12,-142,202,-187,12,87,7,146,-228,191,-2,6,2,203,-22,-520,-4,43,0,-112,41,832,14,14,7,420,44,-772,-19,25,-6,-566,351,859,22,-18,22,299,-294,-159,-15,1,-8,-354,315,282,8,3,21,306,-270,-241,6,-14,-6,-121,12,281,-8,-31,7,224,-200,-294,-10,1,-20,-240,39,126,-5,4,-6,76,43,6,11,-14,-1,-107,5,42,-7,8,-4,167,-60,-34,-6,-7,-5,136,44,73,8,-2,-3,-124,42,-120,2,-12,13,-88,-8,44,-2,10,-3,135,27,-33,5,1,6,12,-22,23,left
9,146,67,58,-294,-419,-8,55,-27,-352,258,300,40,-17,-8,253,-416,525,6,-131,-46,-136,10,100,-33,-56,-25,6,350,544,-15,-109,-5,58,-134,-212,-3,-87,4,142,253,-208,-10,10,13,-116,113,-64,-9,-6,3,60,-277,-470,-13,20,-10,-75,67,-278,8,66,8,-32,-67,-119,27,21,6,32,213,-380,-9,95,8,125,-202,657,8,-15,4,79,191,-818,-7,65,14,-591,313,729,18,10,13,421,-281,-591,-9,9,-15,-286,147,560,12,-5,20,711,-339,-397,-14,-27,-18,-347,105,636,9,-23,13,195,-64,-306,-11,9,-10,-437,53,379,-2,-12,-4,201,-122,-188,-8,-16,-5,33,40,141,-3,-10,-7,-17,-48,-108,6,-2,0,-65,45,100,-9,-7,0,-137,-14,-135,5,1,-2,-114,115,135,-5,12,-3,338,-26,-186,13,-10,7,29,-14,69,-9,-1,-6,-177,47,35,left
16,149,57,-246,35,84,13,-2,-17,161,-247,158,7,-25,-15,-322,24,318,-9,-60,-27,193,-89,-107,-38,-44,-30,706,330,252,18,-108,1,-333,-104,-157,5,-59,11,-31,206,-139,12,-14,16,-118,-65,-225,6,20,-8,189,-212,-205,-29,35,2,38,-168,-336,2,19,2,-118,279,-179,8,83,17,-44,-93,81,0,-1,-22,390,153,-296,14,41,21,-507,68,477,-11,18,0,452,-92,-515,-2,33,9,-560,172,661,-2,-16,1,274,-33,-374,3,16,11,-332,-2,305,12,0,5,324,-179,-142,-12,-31,-8,52,-56,407,0,-22,-13,-72,13,-226,9,-11,2,72,-115,228,-22,-21,-13,59,100,-136,8,-4,8,-228,46,71,0,2,-2,13,-14,-37,-3,12,-8,-152,83,68,6,-5,7,178,-97,-95,-6,2,-5,-40,43,-2,5,7,3,-65,53,113,1,0,0,237,-86,-81,left
21,151,38,-400,7,118,1,0,6,438,-215,-16,14,-62,-27,-144,-8,330,-13,-41,-33,277,136,406,1,-66,-19,-442,-57,254,4,-93,-2,347,-290,-450,-38,-23,-6,50,381,-158,35,-80,53,-362,40,-45,-39,42,-30,314,-227,-592,-6,16,-8,-193,309,-141,12,58,15,-17,-6,-237,9,48,-5,-150,82,5,1,59,3,109,-10,-15,9,23,10,152,-52,236,-9,-3,3,317,-151,-33,-1,-4,10,-456,279,268,-18,11,-7,164,-159,-325,16,-6,6,-476,237,344,0,19,14,294,-110,-239,10,-23,8,77,-113,84,-8,7,-16,-220,76,92,25,-1,2,-35,-135,159,-21,-7,-17,325,-87,-103,-3,-17,-2,-118,67,70,3,-7,4,-40,32,54,-1,-5,3,168,-36,-104,4,-12,0,-55,-38,8,-4,8,0,61,54,36,1,-10,1,-24,-142,-98,-12,14,-12,-105,208,143,left
17,-161,1,532,-356,194,-28,-13,-29,-416,159,-126,-8,18,-1,-23,49,-307,5,38,11,-202,272,-291,22,55,7,-220,61,-35,-4,65,7,403,-276,-118,14,-6,4,-93,283,-148,9,46,19,49,-159,460,-3,-10,-12,56,102,-395,5,24,0,-274,122,694,3,12,19,440,-95,-522,11,-18,-1,-365,-125,356,-16,4,5,65,0,56,0,-24,-9,-30,-181,-44,-14,-5,-13,88,93,156,1,-9,0,-4,-46,-44,-1,-7,-6,-45,-20,93,-2,-2,3,61,92,-12,2,-5,2,104,-25,21,0,-8,0,-107,14,-13,2,-2,0,103,-31,-75,-1,2,-4,-97,37,86,1,-2,5,33,-58,-34,-5,5,-6,-146,63,-20,9,4,8,177,-35,-54,-7,-2,-3,-58,37,63,14,-8,9,74,-85,-46,-12,20,-17,-76,50,90,2,-14,6,139,-38,-72,2,-5,3,-159,28,107,left
13,160,0,120,-339,338,-18,-61,-10,-14,395,516,28,-53,-1,210,-75,41,-19,-112,-28,-79,-180,-238,25,-61,5,-265,477,109,3,-43,19,267,-532,-558,-29,-43,3,115,-153,-426,-37,74,-25,-221,191,-147,11,34,10,62,60,-273,14,58,-2,-126,282,-22,19,51,23,-72,-92,278,-17,6,-2,302,-102,-400,-1,25,9,-453,160,779,-10,-3,9,213,26,-791,3,28,4,-463,95,762,-1,-11,-9,651,-161,-636,7,12,3,-573,297,834,13,-14,6,653,-345,-672,-7,-5,-5,-199,152,615,-6,-46,1,-46,-166,-403,3,18,-2,-331,185,455,-3,-9,-1,388,-274,-450,3,-5,-6,-222,143,304,-14,7,-4,139,-7,-50,15,-19,3,-130,-78,-100,4,11,2,84,-104,20,-12,-2,-3,132,-83,31,-18,-4,-10,-144,265,-72,17,-2,16,-38,29,68,-3,13,-4,38,-8,16,left
52,-147,-8,289,-135,414,-36,-53,-5,124,-185,-422,-25,3,-14,-395,31,-424,5,89,4,-181,386,-111,24,56,4,130,-123,-256,-3,87,13,181,-80,370,-3,-21,-15,373,59,-378,-9,42,21,-347,234,259,1,-17,8,6,-86,239,-6,16,-7,-390,119,74,24,-4,13,104,-75,-195,-9,18,-4,5,-45,292,0,-23,7,21,-152,62,-1,-19,2,184,-75,104,-4,-17,-3,-145,-22,-64,-1,0,-10,-13,-43,132,-2,-14,-4,-28,6,-315,-5,3,-2,72,83,287,5,1,2,37,-66,-99,-10,-11,-6,59,121,8,2,5,0,-138,-21,10,4,9,0,165,63,53,5,-12,7,-133,-87,-52,-2,11,-4,48,35,-33,-9,2,4,23,-20,138,3,-8,9,60,-27,-112,-5,-4,-6,40,54,73,5,3,-4,-208,-27,-13,-3,4,-3,46,-38,-77,4,-6,-3,-90,44,43,left
-36,150,25,-346,91,-309,7,5,7,176,27,189,-8,-2,5,294,-51,243,0,-25,-8,-276,-68,28,10,-26,1,346,7,242,-2,-45,-19,-498,-161,-157,4,-33,-13,58,267,231,-9,-10,-1,-179,-250,-273,7,3,-8,87,180,55,7,-15,14,127,-49,34,-2,-20,-1,448,117,-179,2,-10,8,-116,-63,-12,4,13,0,183,-29,-185,3,22,-8,-215,55,173,5,1,12,74,-10,-131,-6,17,-7,52,-103,11,-11,-7,1,-98,128,-6,8,-2,3,-37,-43,-15,-6,7,-3,-61,-22,42,0,4,-1,8,-34,14,2,-2,2,9,27,-13,4,1,2,-34,-69,-8,-3,-5,-2,12,85,0,1,6,-6,-11,-41,10,0,-5,9,39,31,-12,4,-4,-2,-26,-70,-24,-1,2,-2,2,70,63,-1,-1,0,22,-42,-13,-3,2,-3,-47,-6,16,2,2,0,22,30,15,right
-18,158,16,-368,175,-188,7,-32,17,-66,-66,308,-11,-9,8,674,-141,91,-11,-35,-14,-632,-44,22,17,-28,3,412,83,25,16,-14,-21,-146,-7,160,5,-26,-9,-212,-94,-202,-2,-9,-7,-18,9,-42,-11,-3,0,217,-21,-20,1,7,6,171,-27,42,-6,-29,2,77,114,-132,-2,7,-3,115,-7,-2,-10,-22,10,184,65,-78,14,-2,-1,-120,0,-74,5,20,2,-110,-15,-10,1,10,-1,-166,-34,76,-8,7,-7,78,7,-50,0,-3,2,-28,54,107,2,0,3,19,-19,-70,1,4,4,-98,-16,70,0,4,-4,120,-33,-82,-4,0,-2,-117,68,95,4,-6,2,95,-86,-121,-7,5,-5,-153,35,86,11,-7,5,73,-14,-98,-2,7,-1,-18,36,98,-4,-7,1,31,-75,-76,-1,3,-7,-37,63,10,7,1,2,42,9,-11,-5,-5,3,-43,-28,10,right
-28,153,8,-304,191,-315,14,17,38,326,-152,295,-16,-21,-24,-46,-154,385,5,-62,-9,413,235,-7,13,-30,-3,-262,-133,23,-2,-31,-21,-232,103,64,21,-39,2,149,263,75,10,13,3,-436,-268,-96,9,-9,2,84,135,-323,-11,-2,9,-163,-312,-137,-11,8,-6,558,-22,-182,-4,5,-4,26,-62,5,-6,-4,6,380,169,14,7,-4,3,-312,-46,119,0,3,0,327,-5,-50,-1,4,-9,-245,33,104,-5,0,4,-41,67,52,0,-9,1,-58,-15,-14,0,11,-1,-57,-19,6,-1,8,-1,135,64,13,6,-15,8,-225,-62,72,-1,-1,-3,98,26,-102,-5,4,-6,8,47,89,11,-17,5,-33,-8,-75,1,4,-1,-15,-31,61,-1,1,-2,-14,-25,-74,-4,8,-8,-10,22,23,8,-8,2,20,92,-9,-3,3,3,-23,-80,-30,3,0,-4,6,56,-1,right
-13,162,31,456,243,-397,5,-5,4,-725,-180,725,1,-52,0,802,-117,-176,3,-33,-15,-628,-42,301,-7,-33,-5,272,60,-116,5,-25,-18,-577,-163,-106,6,-14,1,342,208,26,4,8,-1,-373,-122,42,9,-26,-3,275,116,-101,21,8,1,-20,78,40,-29,16,8,423,-258,-5,11,-46,12,-61,187,-129,-4,9,3,-194,-236,-70,-13,21,-16,127,14,104,8,-3,-1,-218,143,113,6,5,2,99,-38,-186,1,11,2,-38,37,2,-2,7,0,64,-81,-50,3,2,1,-64,84,30,-1,3,-6,94,-50,-34,-3,-1,5,-68,25,7,-4,3,-1,57,-6,-7,3,-5,4,-115,27,43,4,7,-3,59,-52,-36,-8,-1,-1,-5,26,43,11,3,2,1,-9,76,-6,-17,3,-12,-11,-105,-5,3,-5,-49,-30,7,6,11,0,75,17,-13,-3,-4,-1,0,51,43,right
-9,155,40,268,334,-351,2,-15,23,-585,-521,354,-15,-22,-51,97,-211,98,9,-39,-1,490,322,-117,-6,-5,0,-491,-324,284,5,-47,-13,647,502,51,-23,-4,-7,-529,-161,12,16,-40,-12,88,400,-96,6,-4,23,-262,-316,230,18,-18,-11,294,308,-375,1,14,12,-215,-247,176,5,-34,-7,137,-70,-248,13,14,-15,-285,-2,-62,-5,19,18,623,30,-77,-1,-4,0,-599,-159,297,-5,15,15,506,-21,-325,1,0,-9,-140,-10,-24,-16,8,-1,-83,160,165,9,-11,-1,102,-33,-114,-6,13,6,64,-38,21,4,-3,-10,-220,88,110,-9,5,3,158,-85,-76,7,-6,-4,224,45,-190,-1,4,-5,-323,25,236,3,-8,4,-23,56,-10,2,-2,5,-12,-68,-83,-1,15,2,-16,-22,108,-2,-11,4,47,-33,-45,4,1,-8,15,46,16,-2,1,-1,72,-25,-17,right
-27,155,30,-186,214,-663,16,21,21,-196,-216,784,-19,-19,-4,600,-172,115,3,-70,-29,-223,5,61,8,-8,-3,195,91,204,-7,-41,-6,89,208,-215,3,-20,-9,-592,-183,245,-27,-29,-10,-123,113,-170,4,-13,0,150,121,37,15,-21,3,117,49,-176,14,6,6,-14,-153,76,14,-10,3,118,72,-240,5,24,2,0,-150,139,2,-4,-3,-170,30,-154,3,11,6,266,14,-112,-3,8,-4,1,-73,68,-7,7,5,-368,53,104,6,11,-2,480,-54,-217,-15,-3,-10,-162,19,111,-3,0,3,-2,-27,31,1,-5,-1,37,119,-84,3,4,5,5,-63,79,2,-3,4,47,54,-70,1,-1,2,-147,-22,31,2,-4,-1,114,2,-84,-6,7,-6,-89,-44,123,10,-18,5,9,83,-157,-8,14,-8,53,-123,79,7,-15,-1,-136,127,-3,-7,15,4,122,-95,5,right
0,163,13,-168,355,-785,-12,2,1,26,-101,606,-7,-5,21,418,-141,177,-5,-39,-33,-254,-77,378,15,-37,18,803,261,-160,16,-31,-8,-803,-465,303,-5,-24,-9,288,173,-171,3,-25,-11,-486,-239,78,0,-24,-10,-26,273,-242,3,-22,3,-97,-64,14,-16,21,13,300,112,58,20,-23,8,-498,101,-72,13,5,-5,279,-133,-22,-13,17,-7,101,-13,-94,2,3,-2,3,31,-14,-1,-14,11,162,-28,-52,-1,22,7,-226,-83,27,-4,7,-8,233,-50,-15,-2,5,-5,-130,137,35,4,10,6,100,-95,-6,-4,-3,-4,-187,32,104,2,-3,4,181,-19,-135,-1,4,-8,-53,55,80,0,-3,9,-22,-11,45,1,-3,-6,-73,10,29,4,1,4,114,-24,-116,3,1,-10,-58,107,49,-4,-3,10,-5,-91,32,2,-4,-4,49,-19,-143,-4,8,-1,-61,38,138,right
-7,166,58,-115,131,-725,-25,-14,-17,48,-276,692,-8,-12,-19,292,4,299,2,-60,-9,-195,-11,12,-1,-20,-1,142,170,-13,17,-36,2,-339,-83,-96,-14,-2,-15,88,95,177,12,-30,-1,-160,-30,-215,8,-8,-13,57,231,254,-5,-2,21,207,-125,-145,13,-2,-4,30,-120,-67,-3,-29,10,253,96,-4,11,5,-4,-393,-242,-85,-7,-3,-6,508,151,-152,-6,12,-1,-324,-41,80,1,-3,1,58,-15,-133,-5,18,-2,-103,146,61,9,1,5,-40,-75,1,1,11,11,-46,39,-28,1,3,-10,35,-30,-2,-9,4,-2,-45,-29,81,0,4,-3,146,25,-120,1,-6,5,-156,-48,91,3,-5,0,58,-6,1,-1,8,-2,55,83,-10,0,-7,4,-41,-115,-44,2,0,-1,-32,27,58,0,0,0,80,16,-45,-9,5,-12,-47,17,-35,11,-3,6,-11,-43,79,right
7,154,49,52,454,-225,5,-5,36,-17,-352,544,-1,-70,-53,-241,-473,-365,-33,7,-21,12,116,416,18,-55,5,126,61,-250,-9,-4,-15,132,275,64,5,-17,0,-239,23,26,-12,-2,-10,-164,-184,239,7,-28,0,315,92,-260,9,-6,-8,59,-3,-57,-13,15,11,183,-35,69,14,-29,15,-202,71,-108,5,12,-1,257,28,-74,-7,13,-5,-378,-133,102,-3,-7,0,203,-19,-61,5,4,5,48,63,-101,3,-5,-7,-53,67,65,-13,7,3,-51,-20,-149,-5,18,-10,11,-10,25,6,-3,3,-44,119,72,5,2,8,109,-62,-56,-3,2,3,-82,-25,40,6,-5,-1,57,-20,-24,-1,-3,-8,-56,54,70,0,-8,7,47,-69,-60,2,4,0,-17,-5,-10,-2,-6,-1,-85,8,80,2,6,-5,48,-3,-50,-3,-4,1,72,11,-64,-5,5,-3,-140,-8,140,right
17,158,27,-739,96,-366,-3,36,35,494,61,-254,-43,25,-19,140,-169,650,8,-104,-23,757,178,239,5,-10,16,-429,-288,-138,7,-49,-13,215,176,193,2,-27,-6,-50,-116,-49,-16,-23,-17,-290,139,12,18,-13,-11,-200,-30,-129,-8,-1,3,229,162,368,5,-25,4,-28,-133,-282,10,-8,-2,-2,-30,-43,7,-7,7,54,50,-32,4,-16,0,-228,-220,-280,0,30,-5,326,188,-141,1,14,10,-214,-146,53,-19,12,-13,94,86,48,8,-11,2,-65,122,-50,1,17,12,14,-112,142,1,-14,1,-3,91,-75,-5,14,-12,-48,-6,59,9,-10,3,6,19,-35,2,13,3,-20,33,1,2,-6,6,40,-83,-55,-7,-8,1,188,74,-55,4,6,-3,-300,-112,140,3,-7,-5,198,8,-178,-2,10,-1,-159,-22,131,2,-3,-3,-12,20,82,-3,-5,1,84,26,-148,right
18,146,63,-68,278,-162,-34,45,3,224,-33,86,-3,-35,-16,-357,-581,503,8,-29,-32,352,60,-45,11,-47,-2,-162,269,-98,-5,-31,2,-143,-294,271,-9,-25,-15,307,52,57,-31,4,-21,-352,6,-297,19,-51,1,302,305,262,16,-45,14,-46,97,-150,-7,23,22,-281,-69,-71,6,-10,-9,310,55,-189,6,22,-4,-327,-246,-7,7,15,4,174,130,-145,4,35,-4,69,-81,174,-11,3,-2,151,91,-40,-2,-16,1,-82,-29,-10,0,12,5,64,-48,-95,-4,-6,-11,-58,-30,60,1,-1,10,-172,15,17,1,13,-5,219,-7,-27,5,-5,1,-144,31,97,8,1,6,-55,-50,-50,-8,-7,-4,170,-35,-57,-1,2,-2,32,64,7,-1,3,2,-225,-36,108,-1,-10,-3,125,-7,-138,-2,5,-2,-12,30,108,5,-8,7,-10,35,23,2,1,1,-97,-18,-30,right
19,162,12,-712,106,-373,-9,18,36,547,119,-144,-37,0,-37,-405,-688,607,-6,-43,-12,870,532,-67,11,-35,8,-355,-1,-16,-1,-26,9,307,58,253,-7,-11,-19,-405,-120,38,13,-37,-7,21,250,-79,3,1,0,-43,-78,162,10,-36,6,358,240,-212,14,11,-6,-128,-335,-117,-21,3,3,302,11,138,15,-54,13,-99,24,-132,-4,27,3,66,-236,-107,10,-2,-12,-212,182,20,-12,33,1,-43,-124,41,1,2,-4,57,132,-13,0,4,6,-2,-59,15,5,2,0,28,24,-66,-4,14,0,-32,-15,97,3,-5,1,204,-7,-75,4,-8,-4,-108,-36,50,-3,-5,8,-69,44,50,-3,-2,-3,40,-82,-165,3,-6,1,-127,46,95,-3,6,-5,88,-3,-68,4,6,-5,-37,12,54,-2,-4,2,40,-17,-65,-1,0,-3,-16,5,70,-3,-9,7,52,69,-77,right
23,151,62,-143,366,-859,-39,72,-25,-936,-392,820,-22,-60,-34,1358,62,228,10,-36,4,-235,268,90,18,-49,3,-60,-236,-21,9,-22,-1,2,67,171,-6,-17,-12,-29,62,74,7,-24,-2,-703,-173,-65,11,-40,-11,573,190,38,-16,-1,16,273,-274,-51,-8,-32,-9,-201,-95,-189,9,-16,1,-32,244,87,11,-2,14,95,-353,-481,3,71,-13,-1,62,70,-7,6,7,54,64,-14,-15,2,-13,-58,75,122,13,-12,11,142,134,-80,-1,18,9,-109,-108,51,2,7,-6,-93,-26,95,-8,1,-6,90,18,18,2,-10,0,-80,68,-82,9,1,3,-33,-78,58,-6,5,0,128,-22,-6,3,-14,1,-125,111,64,1,0,0,141,-59,-142,3,-2,-3,-102,25,43,-7,8,1,107,-110,-39,1,-10,-7,-19,103,11,3,-2,5,2,2,67,5,1,7,-119,-34,-14,right
28,162,8,425,587,-451,15,-3,58,-590,-423,631,-43,-23,-20,103,-303,-257,-26,-37,-50,-54,128,105,13,-14,19,182,139,255,11,-52,-1,-280,-124,-99,-18,-13,-20,-147,-12,45,-3,-11,-5,15,123,169,19,-35,-5,230,-31,178,-13,15,8,178,-125,-261,4,-34,-3,-56,-75,-2,-3,3,-7,406,121,-127,17,-19,6,-416,34,-52,2,35,5,139,-26,-161,-5,8,4,-138,-30,64,-1,-5,-1,98,-47,-112,0,26,1,-106,57,8,-7,14,-2,131,-20,19,8,-8,-3,-41,24,59,-3,-4,0,-73,-32,43,-7,-2,0,-43,-14,-35,6,8,3,143,17,-56,4,-5,2,-98,39,131,-2,-7,0,-137,-102,-2,-6,7,-3,291,2,-189,0,0,-9,-195,87,114,4,5,5,65,-14,-1,1,-8,4,12,54,-46,1,0,-2,-55,-68,80,1,-1,8,-33,-15,-73,right
34,163,63,-46,614,-685,-7,-3,27,27,-314,744,-49,-33,-60,-142,-565,39,-10,-39,-19,30,160,532,20,-64,4,611,213,-274,-2,-8,-18,-681,-102,130,-3,-15,-11,-155,-125,177,15,-21,-11,234,311,-302,-1,20,8,-298,-124,1,19,-49,2,332,136,67,3,1,12,179,-235,-424,-14,19,-8,-50,-28,-165,2,-3,-10,218,298,200,2,14,22,-487,-192,43,1,7,-12,451,14,-181,-18,24,-5,-96,-98,105,6,1,5,58,135,38,-1,-16,9,47,-66,-17,8,4,2,-63,25,3,-2,3,-5,-104,-37,70,-1,-5,5,59,5,-135,-1,11,-7,38,-27,-23,0,-2,0,-221,-37,111,2,0,0,227,55,-49,-3,-11,0,25,-11,-54,-3,4,-5,-97,-4,43,-1,-9,-2,-62,13,52,8,3,5,-8,40,-53,0,8,4,65,-3,28,2,-11,1,-72,-8,53,right
-24,-161,-22,44,-247,-333,2,-13,-36,-460,206,-416,-10,61,48,895,-507,21,24,68,-47,-873,510,80,40,132,75,623,159,-264,-5,99,-15,-1013,268,325,-31,63,72,1136,-259,161,-28,-65,-59,-834,-347,817,-8,-49,-7,749,289,-117,5,-34,16,-260,-170,62,18,-47,-20,-218,30,269,-7,-28,-6,64,91,-278,1,-7,0,375,236,36,-3,-48,-1,-664,-295,188,16,-21,-4,423,164,-329,-13,12,3,448,-92,-449,13,-6,-28,-633,196,252,-3,27,25,237,-10,16,21,3,17,-1,-223,-157,-7,32,-7,39,-17,14,-2,1,1,-106,-25,150,3,-12,4,97,-36,-125,-8,14,-5,69,-38,-37,-12,-1,-11,-162,7,97,0,-10,4,4,88,-9,5,13,6,182,11,-136,-5,-1,-1,-146,-67,110,1,-9,-2,-58,35,29,5,6,5,210,102,-150,6,16,-1,14,-100,61,right
5,-154,-24,-204,28,-193,-8,-17,-2,-74,-11,-237,-30,-4,7,6,-364,-96,-1,71,-23,223,129,-87,-9,56,-5,-687,-282,279,67,150,4,654,982,-548,14,104,100,-1118,-378,652,-50,28,4,1535,270,81,-11,-86,-32,-979,-475,603,-2,-51,-11,797,214,-197,4,-35,-13,-708,-233,502,8,-58,-7,789,310,-365,-1,1,-7,-558,-51,385,13,-52,0,-82,-97,-134,-10,8,-9,265,-7,-175,-11,-25,11,353,27,-121,13,-10,-1,-368,26,14,7,-7,6,-215,-57,-13,-7,28,10,539,-50,-527,-11,15,-16,-391,-32,259,13,3,7,157,189,-77,3,22,0,3,-107,-48,-1,4,5,151,-26,4,1,-1,-9,-206,53,117,-4,-6,3,-6,-92,-34,1,5,-5,99,33,-52,1,-5,3,-94,7,11,-8,-6,1,-125,5,83,1,6,-1,147,-33,-114,-3,4,0,-6,17,61,right
17,162,36,49,293,-508,-5,33,14,-166,-241,811,-13,-100,-16,602,-87,58,-11,-30,-19,-798,-71,66,16,-53,-11,214,46,-67,-17,-13,-12,-112,125,71,29,-35,-3,-332,28,-86,4,-13,1,278,-4,-34,-18,-7,10,-94,25,-259,17,9,-6,235,-13,208,-21,-14,12,94,-131,-89,4,9,-4,30,-94,-172,-4,23,-18,182,33,-77,-12,-2,-6,-189,137,175,9,9,20,-31,27,-23,2,5,3,72,-4,-41,0,0,-2,-147,30,151,9,-1,7,128,3,-177,5,10,-3,-112,-16,48,-3,4,3,48,-72,7,-1,-2,-4,-19,16,32,0,-4,2,78,-45,-23,-1,-7,0,-52,14,-30,2,2,-7,11,52,-12,-3,0,-2,-49,-86,3,1,7,-2,33,73,-15,-2,-2,-1,38,-10,68,7,-16,8,-107,21,-30,-6,6,-2,43,-17,-146,4,9,7,51,36,101,right
37,164,16,-432,86,-630,-22,43,52,267,-263,215,-31,-31,-27,378,201,534,-14,-59,-30,-397,-189,173,10,-33,-6,137,232,64,-3,-28,-3,356,120,20,15,-40,-20,-343,-175,198,20,-37,-5,222,115,283,-6,-14,16,-24,-36,-485,9,-21,-25,-249,-59,161,-1,-8,11,-41,-33,-55,-7,4,19,-1,-137,-404,-18,11,-12,264,-20,-139,3,8,-8,-172,158,241,14,0,20,-88,-10,-231,-4,26,3,251,-101,-225,1,18,-17,-255,91,258,-2,-4,11,218,14,-6,4,-4,3,-65,-39,-33,-8,8,-9,47,-36,-35,-2,5,-13,-177,43,137,3,-8,11,148,48,-12,2,-5,12,-46,16,16,2,-10,-3,43,-53,64,2,-4,-3,-102,21,-55,1,13,2,104,-88,-127,-1,-1,-9,-103,57,154,-2,-5,6,79,-11,-56,-5,-2,0,27,6,-7,7,-5,0,-57,25,-85,right
-7,168,6,-865,97,-521,15,24,60,954,77,338,-27,-13,-42,-88,-191,451,-3,-71,-17,28,61,67,-9,-9,0,-96,-45,276,7,-55,1,249,211,-43,18,-24,-3,-419,-260,182,-2,-25,-3,245,277,-137,15,-16,-3,-269,-206,-120,-4,-19,-15,362,95,46,-5,5,16,-329,-254,-284,-4,-13,-5,257,27,-259,-6,17,-10,-29,15,110,6,17,17,-86,62,-122,-5,28,2,51,-80,5,1,13,-8,74,70,118,-9,-14,2,6,28,112,10,-14,-2,-56,94,8,5,3,9,68,-84,-176,-7,20,-7,-134,-12,100,8,-16,5,-14,77,-12,1,0,5,154,-39,-59,5,5,-12,-25,-6,-29,-13,7,4,-75,-44,83,10,-9,5,70,-23,-111,-5,9,-3,-29,-28,17,-4,-3,2,23,29,40,1,-4,-6,-14,16,12,2,-2,2,42,47,-29,2,3,0,-52,-37,1,right
12,157,39,250,293,-27,3,-42,1,-283,-347,128,-30,-6,-36,-221,-59,343,-1,-47,14,106,296,45,4,-27,-7,-31,-118,-37,9,-11,-11,-96,-26,214,2,-20,0,-25,98,-407,23,-17,-11,134,67,221,-9,15,10,-23,-226,-124,-9,-28,1,108,157,-110,10,3,13,282,-152,-245,-16,-11,-13,361,-155,-478,3,7,-16,-1226,325,780,2,14,36,937,-308,-450,-15,-6,-28,-548,243,378,26,3,14,407,-132,-291,-15,18,-16,-202,173,207,9,4,14,159,-120,-117,4,-3,7,-59,35,22,-6,5,-7,80,-55,-76,4,5,4,-107,6,110,-9,-5,-10,88,-19,-106,11,-8,2,-109,58,116,-2,4,-4,8,-58,-95,-2,1,2,99,45,4,-12,3,2,-110,-16,145,20,-4,2,139,70,-114,6,2,0,-128,-135,56,-29,-6,-13,34,79,3,19,-2,13,-81,42,-8,right
21,174,42,79,462,-978,-22,20,0,-993,-713,1123,-23,-51,-13,1599,246,-144,7,-38,5,-1017,-230,532,9,-44,-16,453,170,-182,2,-19,-20,-585,-15,-12,-1,-12,-8,531,122,-12,-13,-36,-7,-561,-333,172,20,-21,8,729,495,-228,-1,-26,10,-104,-358,54,-13,-4,4,105,-45,-355,4,12,-13,-127,189,11,-2,15,-3,-59,-45,-102,10,20,9,158,73,-113,-8,15,-4,-232,5,265,2,1,9,314,11,-168,11,5,-1,-89,81,207,-6,-10,4,84,-135,-169,-5,5,-7,-246,-69,60,4,-3,4,21,27,-31,-3,15,-10,-89,-40,74,4,-4,5,114,60,-57,5,-12,1,-71,40,-41,-2,-1,6,-30,0,-56,-1,18,-2,162,-48,-48,-7,-16,-6,-92,51,117,7,-4,1,12,-75,-83,0,1,-7,-152,37,30,0,7,5,183,-48,-101,-3,3,3,-43,38,110,right
14,151,48,-240,88,-249,-6,7,2,624,179,302,-19,-37,-21,-742,-441,218,10,-35,-1,725,229,-162,-18,-12,-14,-598,-239,502,2,-54,-5,-26,71,-249,12,-4,-8,80,126,291,-16,-12,5,217,29,-90,31,-37,-22,-657,-20,46,-2,-3,10,865,34,-216,-8,-13,-2,28,59,95,11,-17,6,-353,-159,-58,-6,3,-5,178,41,-373,-9,40,-2,-43,-128,102,1,-12,5,81,245,-98,11,7,-1,-191,-63,44,2,19,12,220,-79,-290,-6,6,-10,-181,24,172,0,5,2,-97,-17,45,2,1,-6,121,53,21,-5,-5,10,-18,-15,-8,5,0,-3,-117,-3,20,-3,6,-1,98,-41,-70,-1,1,7,50,11,40,5,-21,-11,-82,27,26,2,17,11,-29,-65,-65,-6,5,-14,100,8,1,-6,-4,-2,-51,58,87,5,-3,10,29,-30,-54,2,8,1,46,31,-36,right
33,150,26,107,487,-446,2,11,32,-520,-442,530,-32,-36,-12,382,-196,-19,-15,-35,-12,-242,80,269,9,-24,-15,-11,-116,146,-3,-42,-29,-337,210,-223,-12,-3,17,498,-65,208,2,-37,-9,135,146,78,18,-34,-1,-493,-188,64,6,20,4,1223,150,-591,-17,-11,-21,-1064,-234,767,18,-31,9,468,338,-515,4,13,2,-245,-285,-199,-9,30,7,325,89,-115,-9,1,-9,-411,-38,38,5,20,7,237,122,-99,5,8,8,136,-26,-37,-8,3,-5,-181,-85,119,6,-2,5,-50,115,116,-8,5,-12,-136,-59,181,11,-22,11,206,123,-205,3,21,-3,-124,-177,-10,-10,-5,5,68,26,-38,6,-3,-4,-1,18,23,7,-6,-3,-67,-32,-36,-8,9,1,-95,-53,157,0,-2,1,223,39,-194,-4,9,-10,-127,4,165,2,-14,12,113,26,-100,2,5,-3,-30,18,-53,right
8,153,27,-503,157,-642,-11,50,18,370,-92,615,-17,-78,-10,47,-165,296,-18,-31,-23,7,72,175,17,-21,15,116,4,176,11,-29,-7,-260,-18,-297,9,-15,-20,93,123,168,-8,-12,7,-50,-28,-164,-3,-25,-30,-298,-94,65,15,-23,16,515,177,-25,-20,-2,9,106,-174,7,13,-20,-16,-298,111,29,-17,28,17,415,-148,-253,-2,-9,-5,-78,90,-1,13,4,1,-137,-78,-75,-11,13,-8,78,126,-78,16,16,9,-26,-19,19,7,-8,6,-65,-13,45,-8,-3,-1,-55,5,-17,-1,17,-1,134,-90,-83,-5,-10,-2,-164,66,187,8,-6,3,70,-48,-153,-4,14,-2,-33,25,34,5,-2,-2,82,-27,-67,-4,-4,-5,-130,11,158,-1,-8,6,198,2,-107,3,-1,-5,-79,-47,-26,-5,-3,-1,-169,87,131,2,1,4,113,-74,-131,-7,6,-2,-38,62,82,right
43,161,43,181,379,-879,-48,61,21,-745,-341,1090,-6,-74,-29,819,-144,-141,-11,-10,-27,-491,40,399,28,-45,14,907,233,-254,-23,-41,-33,-1261,-212,18,-1,-37,12,682,406,27,12,-28,-6,-375,-363,152,-15,-1,-17,167,242,-86,25,-41,20,96,-96,-165,-1,25,4,-96,-273,108,-11,-13,-6,271,117,-73,11,-10,3,-201,121,132,18,9,16,141,-50,-404,0,37,-11,-173,-102,96,-3,17,-6,64,53,39,-11,5,3,103,-26,-51,3,-5,2,-30,101,22,5,3,7,63,-135,13,-7,-2,-2,-78,7,1,-1,-9,-1,42,-21,-72,-2,4,-3,-53,65,38,7,-2,4,-11,-87,-39,4,0,-5,-46,76,91,-3,-3,0,95,-83,-123,-13,10,-15,-48,63,50,5,0,4,-49,48,101,19,-10,17,80,-31,-85,-15,3,-5,-40,-3,16,3,1,-1,-102,-46,28,right
19,155,14,393,412,-368,0,19,35,-120,-234,485,-15,-49,-17,-130,-305,334,-13,-39,-15,-88,76,-88,2,-27,-9,-29,32,-34,11,-24,-10,42,36,169,-8,-20,-8,-502,42,-288,27,-36,-1,259,219,175,-22,18,5,731,-160,124,0,-75,6,-715,70,-62,1,41,6,793,-308,-262,-13,-56,-25,-467,66,89,11,33,7,82,-52,-307,-3,8,-2,-176,132,64,-1,23,15,384,-77,-353,-13,14,-27,-538,122,453,26,-11,35,257,160,-311,-9,21,-17,-178,-191,278,3,-12,10,183,20,-146,8,10,2,-142,-58,-25,-15,8,-6,-42,-72,8,-5,-6,3,52,66,-13,-4,0,3,-41,-19,-18,1,9,-4,3,43,45,-1,-14,-5,91,49,23,13,13,5,-67,-30,48,2,-3,-4,48,6,-28,-3,-10,-2,-24,-9,6,1,0,4,-1,66,70,6,0,5,29,-57,-98,right
-37,-149,-25,-135,85,-252,-12,47,20,137,-521,-25,24,10,-38,-448,-133,181,24,37,18,158,529,-488,19,89,21,334,184,-390,51,107,6,-901,336,187,-37,83,17,1087,192,190,-32,-17,38,-453,-740,385,-31,-25,-51,448,-94,414,9,-65,12,-15,-71,279,4,-31,-3,23,57,-38,18,-34,-6,203,70,152,-19,-25,-16,-541,-257,-50,11,-45,-29,-238,421,-265,-4,16,9,240,61,296,-19,-34,15,-39,-65,-206,23,-9,1,-154,145,-70,9,-6,2,463,-82,-184,-13,19,9,-43,-32,-102,2,3,-3,-73,-43,-43,1,14,-1,164,-36,-28,12,7,-2,-92,39,77,-3,6,4,56,-82,-129,-14,3,-8,-39,98,-7,-3,4,3,35,-21,62,7,-12,3,-262,51,117,7,9,12,157,-93,-197,-11,11,-12,-152,-35,137,3,-12,2,50,8,-47,5,1,-3,-28,7,40,right
21,160,33,-534,93,41,3,11,5,950,173,-82,2,-19,10,-406,-353,639,-24,-50,-28,-19,-63,-150,-16,-14,-19,-144,-20,74,15,-61,-2,239,271,-25,-14,6,-5,-483,-303,-149,11,-54,-2,576,411,41,-17,9,-5,-3,-213,-59,9,-32,21,310,127,-279,3,20,-21,-215,-287,147,-7,-18,22,-132,141,-2,15,-3,-8,12,-7,-90,1,5,-4,-152,57,-65,4,12,0,48,0,10,-7,17,2,37,33,-109,-5,3,-2,27,50,112,11,-13,12,100,-66,-172,-6,26,-9,-185,-79,141,-2,-4,3,60,-3,-164,-1,2,-12,4,78,-2,-4,5,3,95,-65,-19,-2,1,-5,-25,80,57,10,-8,17,-74,-15,88,-6,-10,-9,2,-36,12,-1,2,2,-68,78,26,4,4,3,106,-65,-44,-3,-6,3,-100,27,63,3,-5,-3,11,-15,17,4,-3,5,39,-37,-123,right
22,156,34,-263,558,-179,4,43,38,80,-443,344,-25,-2,-30,139,-228,276,-15,-64,-23,7,-128,-59,5,-40,-28,152,238,69,-16,-63,5,-291,-43,-227,11,-22,-19,-126,71,-100,-5,-27,-1,86,221,127,-5,16,20,-72,-90,202,5,-20,-3,591,-93,-277,-3,-20,-11,-335,98,268,17,-5,21,311,-109,-350,-1,16,-23,-349,-12,107,5,29,16,208,-8,-115,-16,-12,-20,-17,-70,-20,9,9,14,-168,85,75,-7,15,-8,153,-58,-194,5,6,3,-174,127,238,5,-5,13,143,-95,-179,-3,6,-2,-147,-29,130,1,-9,0,135,-2,-177,3,6,-6,-81,56,163,-1,0,-1,-13,-24,-67,1,-3,-1,-42,46,36,-6,10,4,125,-96,0,5,-14,3,-3,1,-116,-7,4,-6,-85,-14,217,-3,-2,-4,122,38,-175,6,2,6,-51,80,-7,11,-6,1,-35,-54,52,right
1,162,-14,-638,174,-137,26,6,71,1134,214,-241,-14,11,-6,-858,-513,869,-9,-71,-15,588,-113,-294,-5,-12,-20,-620,21,222,-20,-36,1,606,84,-202,0,-32,-27,-818,90,227,-7,-37,14,675,374,-188,-14,15,-4,-87,-69,206,2,-51,8,-6,-147,176,39,-1,-31,-214,-87,-135,-9,22,27,637,66,-493,-1,19,0,-514,-103,116,12,3,-5,189,17,-220,1,6,-1,-25,67,8,-25,-3,-4,21,-87,178,20,-16,9,-138,283,-2,12,37,6,252,-308,-213,-23,-5,-12,-26,85,110,7,-7,1,-45,11,15,6,1,5,40,-9,-39,-2,-3,-4,-75,-34,71,3,-7,4,-26,22,-13,-9,6,-10,-69,-32,-14,2,-5,10,103,12,-63,5,6,-2,-121,-37,33,-2,2,-2,-56,1,8,0,1,-5,28,35,87,-3,-4,2,46,-27,-73,0,-1,-1,-70,37,-17,right
72,141,-2,-875,103,-724,-35,114,63,1005,207,392,-49,-64,-23,45,-398,406,-4,-61,-15,-127,-166,179,1,-37,-9,-157,184,31,23,-14,22,623,155,-351,-7,-14,-24,-521,-214,543,-4,-27,-15,180,236,-312,-3,-33,-3,-115,120,126,2,-31,-12,-403,-160,200,-12,11,16,303,-74,113,5,-24,12,280,226,-295,17,-13,-5,-313,-191,148,4,17,9,293,-130,-310,12,1,-6,-168,41,-155,-11,32,1,15,40,52,5,-7,4,-101,-17,24,-7,17,-1,83,-117,-128,-12,14,-7,156,75,-76,1,-13,-3,-330,114,246,-7,17,1,138,-114,-127,9,-2,3,124,120,0,7,0,9,23,-10,35,-3,-2,0,-237,-101,82,-1,3,-6,248,-16,-158,-4,-1,-5,-85,143,207,11,-14,10,-63,-150,-112,-5,14,-5,-76,49,-20,-13,9,-13,116,-2,50,14,-13,9,-1,115,0,right
60,139,55,115,606,-738,-30,94,12,-576,-818,928,-33,-99,-25,1060,2,-93,-21,-22,-39,-530,-81,140,18,-54,10,231,343,-405,13,-18,-22,-500,-8,295,-25,-8,7,14,-208,217,12,-41,-14,237,272,-13,-6,-2,6,306,-101,192,11,-48,1,-283,-4,-92,-4,-1,2,-16,-78,-209,-2,-5,5,319,-48,-96,-3,6,1,-392,76,99,13,8,11,-76,-28,-221,5,31,0,354,-47,-284,-4,2,-16,-386,73,297,5,15,15,144,-72,-166,-6,5,-10,-59,45,119,-1,-1,5,180,-54,-178,-8,4,-9,-230,72,248,9,-5,9,141,-19,-114,-4,2,-1,-81,-49,20,3,-3,2,172,14,-20,-2,-3,-1,-178,2,80,3,0,2,166,-13,-163,-8,-4,-3,-135,69,178,6,-6,-11,-38,-69,-40,-1,10,7,28,29,-20,1,-2,4,11,-13,-42,3,0,3,53,-49,-35,right
37,151,23,-593,429,-98,-15,47,28,86,-500,14,-31,-27,-28,495,150,244,-18,-70,-21,-91,-185,293,8,-25,8,-3,88,-69,-1,-24,3,23,144,179,14,-29,-11,313,165,-275,-8,-10,-3,-637,-278,419,-7,-39,-6,143,93,-341,1,0,-15,337,-83,13,-6,-18,11,72,131,-101,0,11,3,-416,-244,132,-6,-7,-1,659,188,-326,0,13,-8,-375,90,284,18,-2,19,-194,18,-34,22,15,2,332,-21,-251,-7,10,-1,-145,-36,63,6,-5,3,-19,-58,-7,-3,1,-3,-62,-67,-47,-4,13,-4,84,-53,-93,-10,-2,-14,20,114,78,6,-8,9,-69,53,52,10,3,12,46,-156,-169,-16,9,-16,-53,21,87,-1,-3,4,-43,63,50,12,-5,3,-1,5,6,-5,8,0,237,2,-198,-1,1,-7,-218,-24,283,1,-22,8,39,82,-131,6,12,-4,10,-88,30,right
-16,-161,-17,67,41,-301,5,-24,-26,-269,339,-675,29,133,49,112,-142,-206,-18,41,-23,-338,-514,633,13,124,-3,174,22,-163,26,55,16,234,357,189,-18,43,33,-203,46,468,-11,-47,13,356,-214,406,-20,-40,-32,-366,-25,-143,3,-20,16,434,72,326,-5,-47,-17,-557,-119,-37,16,-48,-11,112,273,32,-39,18,8,354,-263,101,17,-65,-16,-487,204,-33,19,-17,1,107,-102,-65,-22,24,7,648,48,-378,7,-39,0,-447,21,89,9,20,10,4,-23,-313,4,47,1,247,6,-170,-6,12,-12,-8,26,206,5,-19,13,-198,97,46,2,19,1,223,-163,-266,-18,16,-10,-127,75,209,10,-17,10,12,-64,-40,0,1,-5,-155,-5,90,-6,3,-7,133,6,-86,-2,5,-6,-61,-15,134,10,-22,9,44,51,-32,2,7,3,-37,-41,-81,-9,11,-4,-11,19,40,right
38,160,26,-372,318,-214,1,2,27,593,-134,166,-34,-33,-34,-277,-344,284,-9,-42,-10,-41,81,372,-1,-38,-1,-28,36,-108,1,-26,-3,-120,184,-3,-1,-35,-20,-132,-45,429,-4,-20,14,370,-2,-617,19,-12,-15,-441,-118,147,-9,1,-3,962,148,-82,14,-27,38,-947,-139,-43,-13,30,-13,1041,23,-595,0,0,-2,-758,106,735,28,-24,27,254,-162,-636,-22,51,-35,105,-26,-176,-8,6,-3,-271,126,323,8,4,13,57,-79,-142,-5,5,-6,71,107,70,8,6,12,-42,-93,16,-6,-8,-12,10,7,84,-10,-8,-2,-153,75,106,13,4,4,186,-117,-171,0,-1,-5,-123,76,134,-3,-2,6,69,-51,-125,0,-2,-2,112,32,-41,-1,5,-2,-110,-11,156,-3,-7,3,21,24,-28,6,-6,4,48,-28,-125,-7,7,-6,-101,-42,83,2,-7,1,-18,42,4,right
-38,-153,-7,270,9,-603,-13,12,-30,-310,-31,194,39,34,31,-339,250,-411,15,103,-15,615,-549,-182,11,108,-12,-700,583,249,52,133,80,314,-211,306,-42,6,4,240,165,501,-32,-97,-26,-165,-325,297,-18,-36,-16,-200,54,-164,9,-18,-1,6,222,245,7,-33,3,182,-37,38,8,-34,-9,-117,84,4,-3,-14,4,244,-221,23,5,-31,-18,108,129,26,4,0,15,11,-200,-46,-12,-25,-7,-112,33,-57,5,6,8,235,32,-273,1,-5,-10,-325,16,100,3,25,7,326,3,-182,-5,-11,-13,-369,-20,-22,9,21,14,246,61,-184,-11,11,-3,-198,24,169,2,0,17,58,-77,-119,1,14,-10,36,-1,3,-5,2,-2,-59,58,112,-1,-7,-1,31,-40,-25,6,-11,8,111,41,-86,1,10,-8,-118,-85,74,-7,3,-4,-41,29,-1,0,1,-4,52,-8,-9,right
67,139,28,-230,126,-418,-29,87,31,-64,79,323,-16,-58,7,422,-373,385,-37,-64,-59,-32,119,66,8,-37,12,-212,186,-128,3,-28,-10,321,125,101,2,-24,-1,-581,-124,65,0,-7,2,498,57,-280,10,-20,-28,-314,-172,289,-9,-18,12,328,70,145,0,-11,16,-203,-259,-183,2,-2,-11,342,256,-145,-1,-9,9,-79,-58,119,2,-14,3,-60,58,-204,7,38,-4,-26,-161,-177,-12,10,-7,-82,80,101,5,-2,7,12,84,-36,10,4,0,-95,-39,-77,-3,14,6,196,2,-24,-3,-8,-9,-217,-16,145,-1,4,4,47,-44,-127,2,2,-6,-101,9,51,-7,8,-1,217,23,-64,3,-8,6,-182,71,185,1,4,3,111,-59,-51,1,-5,0,-25,-7,-63,2,-2,-1,-20,-5,18,4,3,-2,-10,-25,-26,-13,-4,-11,109,100,16,15,-7,14,26,-23,-32,right
42,163,23,-52,556,-404,-13,25,41,-331,-702,433,-50,-54,-58,210,-60,341,-1,-33,-3,203,233,-51,7,-32,1,-101,-180,382,3,-48,-20,-283,76,-41,1,-17,10,114,-1,-266,0,-11,-6,178,67,127,16,-29,-2,-276,-112,-85,-16,8,4,618,52,-251,3,-4,1,-543,-17,184,9,-1,-6,403,179,-183,-2,-2,0,-28,-137,-95,1,1,12,-81,10,-349,-14,44,2,-163,-112,394,0,-29,5,13,104,-96,2,7,-3,9,-119,-114,0,21,-7,82,130,77,-1,-7,-6,-124,5,152,14,-12,5,123,79,-181,-6,12,3,-19,-93,60,-5,-4,-3,5,22,-7,9,0,8,-23,-49,-27,-8,2,-4,-16,-56,-22,-5,-13,-4,-113,30,-55,-1,34,-7,75,20,76,6,-13,9,-3,85,92,6,-9,3,-45,-106,-47,-7,-2,1,-74,48,3,0,14,-3,79,-46,-24,right
-32,-150,-29,88,51,-135,52,20,11,-244,247,-160,5,66,25,-136,-192,-646,-29,49,-37,425,-65,-134,-23,23,6,-342,-22,351,16,67,-3,38,84,158,46,59,44,386,57,343,5,12,37,88,88,224,-4,-20,0,-366,-272,187,-34,-51,-30,240,-65,53,3,-3,-17,-204,116,158,13,-48,-3,-70,-2,-2,-11,-20,-3,-15,17,-1,-26,-3,-20,-253,-31,-8,7,-18,5,250,-111,288,9,-13,15,308,178,-217,4,-14,-11,-73,-181,57,-2,-18,-1,-5,197,-43,4,-6,17,102,-122,-320,-14,17,-14,-165,38,17,14,-1,9,164,79,-194,-9,40,-10,-404,4,122,19,14,12,470,-57,-272,-24,5,-18,-339,10,317,11,-15,22,178,72,-101,2,20,-4,33,-100,-51,0,-16,1,-12,55,-9,-2,7,-8,-133,59,173,4,-18,14,38,-128,-109,5,5,-8,-2,33,-83,right
3,150,39,37,170,-586,-2,25,-4,-323,-146,542,-37,-30,-5,476,-160,276,12,-46,-12,-132,111,118,0,-21,-7,0,21,132,13,-34,-5,34,88,119,-4,-31,-12,-272,-205,32,-2,-25,-5,-45,142,-80,-10,-1,-5,354,71,116,8,-35,10,-423,-110,2,19,2,-13,384,83,-176,-10,16,19,-20,-65,-202,-2,-1,-17,84,15,-13,0,8,16,-84,108,20,13,0,9,-58,-75,-41,6,-10,-6,286,136,-350,-16,29,-2,-362,-175,131,4,11,2,95,48,-118,-6,4,-5,-77,7,125,3,5,4,68,-73,-18,3,-2,-1,-53,21,61,3,-10,3,96,-40,-119,1,13,-5,23,-3,132,-1,-15,4,14,3,-26,-6,-4,-9,-110,-16,-1,6,6,6,128,7,-123,-4,6,-6,-97,-48,58,-12,-7,4,-28,106,71,15,1,5,-18,2,-40,-5,9,-4,29,-16,13,right
26,150,35,19,284,-863,-6,13,2,-440,-92,917,-15,-37,10,668,-198,-18,7,-38,-19,-286,45,401,1,-23,4,429,-176,-148,-5,-36,-42,-440,42,294,-6,-33,1,-142,-81,-101,-9,-13,-16,359,139,-3,3,-11,4,-102,-56,257,4,-43,5,-48,179,-223,-2,10,13,185,-160,-267,4,-1,-9,-165,154,-24,5,5,6,-69,-34,-2,-10,6,11,86,-25,-278,14,25,1,-46,-63,35,-8,8,-7,39,36,29,7,0,-3,-8,23,-64,-5,14,5,128,-32,-36,-1,-11,-8,-190,72,140,0,10,7,44,-62,-39,-7,2,1,100,9,-70,6,-12,1,-221,41,155,2,10,1,74,-69,-117,-7,4,-14,6,31,48,5,0,8,47,-21,40,7,-12,1,-35,73,-29,-1,7,5,-11,-91,-67,4,-3,-4,11,26,46,-10,2,0,21,-29,30,2,-7,3,-13,12,-13,right
45,152,21,-233,288,-631,-7,37,26,-40,-132,695,-17,-39,-1,37,-359,111,-23,-38,-21,344,175,-117,-5,-31,-6,-453,-113,373,-1,-39,-5,306,31,-204,-17,-20,-27,-42,218,152,10,-28,8,-118,-209,253,2,-17,-4,300,92,-166,2,-3,0,-47,86,-39,0,-19,-1,124,-43,-17,2,-22,5,43,-2,-211,-4,20,-7,-134,-76,-108,8,13,-4,3,169,-60,6,10,9,25,-32,-112,-9,22,-1,-86,-3,73,17,-1,7,89,44,-80,-9,6,-5,-117,-134,24,-2,-7,1,-20,94,46,-1,13,2,46,-103,-27,-3,-5,-1,14,87,23,11,-1,7,-77,-87,53,-3,0,-4,-48,-31,-48,-3,6,0,-115,-25,91,-1,5,3,287,-82,-180,-7,-4,-14,-193,146,123,3,2,10,227,46,-104,0,-8,-3,-177,27,113,6,-7,11,106,-31,-97,-6,10,-7,-72,-53,57,right
-33,-151,-30,163,-92,-343,-11,8,-29,-206,87,353,76,8,28,-255,200,-1155,-7,143,-12,513,-119,462,50,17,29,-434,460,-640,-45,146,15,-131,-437,711,20,-14,46,656,634,401,-32,1,8,-543,-997,509,-20,-82,-22,285,83,110,19,3,-13,-39,-80,88,5,-43,1,204,249,57,-6,-17,-24,-186,-396,17,3,-56,-28,-297,422,-191,-23,17,23,575,-3,-107,2,-35,-13,-373,45,-55,3,-3,3,-316,-216,187,-11,0,-5,645,246,-143,-1,-9,27,-150,-75,-233,17,20,-1,16,40,-128,6,26,-6,-192,20,130,-1,16,-2,284,-25,-141,1,-2,-9,-204,19,119,-8,-2,8,-12,6,-28,-2,9,4,98,65,-76,8,0,8,-72,-80,46,-11,1,-10,48,-50,10,3,-2,1,-13,29,26,2,-3,-2,140,10,-68,5,-7,-1,-244,47,102,-2,13,-1,57,-53,48,right
47,163,34,738,264,-1505,-31,60,6,-1841,-635,1529,-33,-43,2,1918,383,-31,1,-78,-21,-547,-100,373,22,-33,14,315,76,3,8,-26,-17,-536,-262,150,6,-37,-18,184,310,-285,7,-14,-15,-243,44,133,-19,-32,14,-10,-81,-63,-6,-23,-15,-91,40,-223,-1,7,20,322,147,99,4,-15,-3,-17,-246,-112,-2,8,0,-54,-101,-101,3,-1,-11,40,165,-134,-1,39,-4,-198,-199,124,-6,0,-1,-30,306,64,18,11,14,-33,-49,-3,-4,8,-5,140,-80,-94,-3,-3,7,-84,71,91,4,-5,2,41,-17,-85,0,10,1,-42,-36,32,-5,-1,-6,71,90,68,6,-7,7,-88,-84,-82,0,11,-5,89,-49,-19,-4,-6,3,-110,46,41,1,12,0,189,12,-30,0,-11,2,-82,2,17,7,-2,-5,-27,-74,-3,-8,-3,-4,-28,37,7,2,1,5,53,-19,-90,right
-47,-148,7,182,-215,-769,22,25,-52,-125,-4,213,-2,57,6,-287,208,169,43,63,-23,-184,70,38,2,83,55,348,196,-361,12,94,26,-991,3,424,-18,63,80,1078,-158,143,-46,-74,-59,1,-208,514,11,-60,5,290,24,180,13,-33,-19,-238,-111,25,2,-32,-8,440,339,-270,-6,-34,-22,-586,-255,176,11,-28,-7,-3,112,-101,-41,16,-9,-76,8,-92,6,-29,-11,-26,83,97,5,-2,18,186,48,47,11,-2,11,129,25,-159,5,-5,1,-66,7,54,14,16,5,-14,-47,-58,10,6,-4,-161,-16,-78,-3,17,2,143,-53,-41,-1,-1,-2,-78,68,-88,-5,10,6,-57,-134,83,0,-4,2,69,39,-168,0,15,-8,-68,34,129,-2,-9,7,108,-14,-80,3,9,-5,-62,-61,8,-6,-3,2,62,51,-34,4,2,-5,-107,-3,75,-3,-6,-1,114,37,-1,right
35,148,56,-135,381,-396,-20,50,10,-165,-606,574,-12,-82,-26,810,172,60,-2,-23,-19,-158,-90,137,2,-68,-11,-294,22,-44,-17,-8,-5,163,69,-65,10,-30,-13,-507,-149,79,2,-19,-12,245,244,35,-11,20,7,152,-77,-22,6,-38,0,-202,39,87,13,-3,12,26,26,-19,-3,3,11,76,-94,-392,-2,20,-8,30,-62,30,-6,4,-8,-80,151,75,13,-4,13,-200,-64,70,0,20,1,270,21,-253,-2,1,-9,-112,5,120,-1,4,6,3,-57,-138,-3,8,0,-22,46,72,-1,8,1,131,-41,-48,-5,-9,1,-90,12,18,1,7,-3,18,9,77,3,-14,11,2,25,-104,2,16,-10,-31,-78,-17,-4,-9,-4,8,79,43,4,3,4,65,3,-24,3,-7,2,22,-34,-32,-7,2,-3,-74,32,91,8,4,0,-3,-66,-58,-11,0,-6,-10,86,97,right
49,142,42,-237,290,-721,-16,26,6,-330,-428,684,-23,-29,-13,940,15,201,4,-74,-16,-135,4,145,0,-29,8,-57,-72,-65,-5,-22,-13,37,130,126,-2,-13,-7,-226,-190,80,14,-28,-19,-341,206,-317,-27,16,13,400,23,155,7,-4,-12,-199,-68,-88,17,-20,1,41,192,52,-7,6,16,352,-23,-235,-5,13,-11,-32,-51,46,4,-14,9,-415,15,241,11,19,14,558,-112,-490,-11,-2,-15,-427,-33,207,-4,2,4,136,54,51,7,-9,2,-99,-27,-123,-3,18,1,182,15,-30,2,-4,-2,-226,-20,98,-2,5,1,200,-55,-176,-3,-7,-5,-175,123,175,2,4,6,132,-115,-178,-4,5,-4,-198,98,168,7,1,3,74,11,-84,-2,8,2,76,-81,-8,-3,-4,-5,-38,41,27,0,-6,-3,-32,-6,-13,2,5,3,-20,21,12,3,5,0,93,-62,-35,right
8,161,20,173,399,-306,15,-7,27,-535,-329,420,-36,-29,-16,271,-240,171,13,-60,0,54,116,57,-9,-19,-8,133,-128,91,7,-31,-19,-211,85,26,3,-29,-14,-60,0,-245,-21,5,-4,29,31,307,-6,-23,6,183,159,50,9,-15,10,-150,-10,-84,4,-2,3,115,6,-106,-6,5,-12,5,33,-7,8,-6,16,-58,-52,-188,12,18,-1,77,20,-248,-5,34,-13,-59,-106,77,-11,-8,3,-13,167,52,19,8,7,32,-79,-121,-6,10,6,24,-61,14,-8,-13,-7,-154,32,112,3,17,3,172,-25,-99,-7,-2,0,-89,5,80,-1,-2,-1,59,-14,-32,2,-5,-1,-10,19,21,-3,-2,0,-42,24,-4,6,8,3,95,37,10,5,-16,-8,-49,-44,-54,-2,9,0,0,-44,5,-10,4,-4,50,44,29,8,-12,10,-66,43,11,2,8,2,-11,-45,35,right
17,163,20,-41,487,-491,0,-4,27,-390,-488,503,-29,-50,-24,620,-49,36,-1,-49,-6,-124,115,134,17,-27,3,-163,-152,-6,-10,-14,-10,161,174,139,-7,-11,-11,-105,-180,23,-5,-29,-20,-222,57,86,0,-2,-6,285,137,206,-2,-1,13,94,-183,-74,4,-36,-9,-264,225,37,15,2,15,411,-39,-241,-1,-13,0,-242,-119,-176,3,17,1,-12,103,-92,5,14,8,-19,-86,-104,5,13,2,181,23,-143,-13,10,-8,-183,4,113,3,1,1,-64,-27,-37,-2,21,-1,191,-43,-36,-8,-7,-5,-142,85,116,7,-2,6,41,-55,-64,-1,-5,-2,-41,51,36,-5,4,5,89,-90,-22,5,-2,-3,-52,67,49,-1,-8,4,-18,-43,-34,1,8,-9,-1,13,-13,-4,0,-3,45,36,49,1,-7,5,-83,-20,-27,0,6,1,96,-5,-31,5,-9,2,-55,44,-4,right
7,159,35,-317,115,-101,-1,-13,7,179,-158,197,-24,-12,-10,386,-112,314,7,-51,-15,3,85,171,17,-52,-2,-281,-143,-121,-1,-18,-29,-165,226,-229,-5,-12,4,-170,-111,183,2,-30,-6,444,209,199,-2,-10,16,-396,-165,9,-1,18,1,504,8,-227,-13,-13,-18,-226,75,43,5,2,24,-140,-61,-40,2,12,-6,701,-87,-495,-10,1,-17,-568,132,303,22,8,22,186,13,-224,-5,21,-13,-113,-79,70,-7,-2,3,-55,96,36,11,9,7,-7,-48,-43,1,8,0,23,-14,18,-8,-8,-5,343,-28,-165,-5,-1,1,-293,16,172,9,-18,7,31,-2,-96,-10,12,-5,-39,-81,9,5,-5,3,-16,49,31,-2,7,-6,41,2,-9,-3,-2,-1,-20,27,46,3,-1,2,87,-25,-107,-4,-1,-9,-42,16,104,2,-4,9,26,-7,16,4,-3,1,-71,30,-73,right
22,154,21,-138,74,-694,-26,25,13,-32,58,561,-18,-53,-11,89,-285,417,-14,-36,-7,210,114,168,15,-27,7,-232,-115,133,4,-26,-20,32,74,98,-6,-12,-18,-431,-45,-41,11,-33,3,565,234,92,-9,-15,5,-189,-45,-45,18,-3,-6,-195,-16,16,-5,1,6,484,162,-308,2,-3,-5,-501,-78,103,3,3,18,332,35,-101,13,0,4,0,-116,-304,-10,17,3,131,-80,-42,1,3,-12,-58,140,-14,6,13,0,-18,-120,45,-1,-11,3,-48,9,-131,-3,21,-6,176,-18,4,-5,-12,5,-204,38,40,5,17,2,102,-106,-43,-12,-8,-8,-91,97,66,7,-6,4,62,7,8,-1,6,-4,-50,-34,23,-3,-8,3,13,-4,-64,1,6,-3,-82,62,55,-2,0,2,66,-61,-32,4,-2,0,-17,70,38,7,-5,11,28,-35,28,-2,1,-7,-35,-21,-75,right
38,150,22,57,526,-932,-24,42,22,-285,-391,749,-20,-63,-12,379,-401,350,-17,-39,-26,-169,96,191,13,-19,3,155,-11,76,-2,-46,-16,-320,62,109,-1,-16,-7,-13,-5,-24,-2,-25,-16,-188,122,119,6,-8,24,322,138,75,19,17,6,-58,-171,-199,-16,-22,-6,80,134,96,17,3,9,231,-65,-138,2,-3,-4,-126,-132,-57,-13,-1,-12,-25,106,45,-6,-14,14,-8,-76,-280,2,7,-6,149,101,-86,3,11,9,-100,15,16,8,8,6,-11,-126,-183,-12,24,-19,83,88,-8,0,-4,-3,20,82,118,2,-8,17,-110,-129,-63,2,11,-8,50,-8,-42,-12,-8,-8,-37,44,101,8,1,9,9,-47,-40,-6,9,-1,-68,-10,-26,-2,-2,-6,16,31,57,4,-8,1,1,38,72,1,-5,1,113,11,-64,2,-15,1,-84,-8,-4,4,11,2,31,5,-53,right
-4,-155,-14,-143,-42,-421,-8,14,-13,59,41,-314,6,32,4,128,-91,-58,-7,65,-14,-65,183,-288,48,56,-26,-619,464,-27,-9,135,92,736,-83,-234,14,4,-24,-876,94,668,-21,52,66,552,-658,345,-25,-46,-31,-18,-106,531,-5,-31,-19,167,3,370,7,-53,-3,-285,1,116,0,3,-14,183,89,221,-9,-52,-15,0,95,-121,11,-17,-6,-432,-135,244,10,-22,-3,467,249,-193,9,-2,10,299,17,-25,6,-6,19,-94,-175,-158,-9,-24,-3,65,-77,-105,-3,5,2,168,72,-250,-13,13,-10,-72,-103,23,5,-11,3,-259,193,-110,5,3,0,101,-28,-202,-14,33,-11,77,-48,-67,7,4,11,-237,78,134,1,5,-3,8,-34,-77,-2,9,-2,-83,32,94,-2,4,5,146,-68,-73,-2,-5,-2,-220,50,93,3,-2,6,198,-7,-75,5,1,-2,-79,-33,44,right
2,166,-3,106,448,-961,4,15,28,-92,-309,693,-2,-30,14,76,-94,280,-32,-14,-18,-219,-255,299,13,-13,1,209,192,228,13,-29,-5,23,-90,241,18,-59,-19,-196,-122,23,2,-40,-21,184,355,45,-5,-16,10,-131,-143,-41,0,-50,3,110,113,20,11,1,5,29,-160,-292,-14,-4,3,128,-63,-217,-10,12,-9,111,63,-100,-4,-4,4,-473,-151,3,-1,24,-1,375,167,-318,-7,22,-8,-59,94,47,8,5,12,-136,50,66,3,10,4,165,-113,-128,-5,-6,-8,-157,11,106,5,3,11,-11,-26,-84,-8,13,-4,131,-30,8,-6,-14,-1,-132,109,41,11,8,2,54,-81,-46,-9,-9,-10,-26,63,77,5,7,8,21,-56,-58,-4,0,-3,-14,3,5,1,-12,7,-150,94,97,6,9,-1,150,-82,-84,-5,3,-2,15,-33,31,6,-6,0,-24,-6,-12,right
38,150,18,-166,639,-708,-12,61,47,39,-294,639,-16,-71,-6,394,-468,-26,-33,-10,-43,-158,-47,520,15,-55,-14,-98,19,-73,12,-37,-1,-95,44,358,-19,-8,-5,64,34,32,22,-42,-11,-502,5,-242,-5,-14,-3,339,199,161,-10,7,9,-22,-106,-45,13,-15,-6,191,103,-67,-7,-15,11,22,-39,-134,-3,20,6,373,-126,-308,0,-21,-15,-310,178,56,8,30,22,-14,-113,-133,-5,1,-9,-62,-24,-205,-11,31,-7,28,71,133,6,-14,11,-39,6,-36,4,22,-2,-73,-69,66,-12,-1,-1,104,69,-39,-1,3,-1,-35,-38,72,8,-11,6,-24,45,-8,-1,0,-4,108,-57,-89,-4,8,-4,-86,-1,77,1,-14,4,148,48,-57,1,8,-15,-221,-7,91,6,-4,11,48,33,-20,-3,1,6,89,-35,-50,-2,5,-4,-55,-2,77,2,-12,4,-29,-18,-59,right
23,-154,-16,-193,-94,-481,-32,22,6,423,71,-638,23,21,-25,-143,147,-131,-3,84,39,248,60,-106,-2,38,-49,-689,-40,356,6,100,35,326,335,99,7,54,-12,-323,-206,402,5,38,58,505,-22,636,-28,-59,-3,-457,-336,304,-13,-30,-11,427,47,-2,26,-33,-1,-32,81,286,-8,-16,-6,-253,-264,-110,24,-60,-21,31,276,-143,-39,19,5,232,-185,221,8,-58,-10,-277,128,-146,12,10,9,192,-97,-52,-14,-5,2,412,-17,-178,0,-4,-6,-347,31,203,0,-7,-8,122,-64,-174,-1,6,-7,-109,73,-124,1,18,-1,125,70,-5,-3,-13,10,-207,44,48,9,2,14,105,3,-154,0,17,-2,-66,-42,-52,-7,3,-8,14,45,-18,6,9,8,22,-35,-41,-2,1,-4,-22,-51,7,-9,1,-1,-9,62,60,4,0,-4,3,-91,-83,-3,6,-4,50,96,52,right
19,165,2,-719,145,-268,72,33,84,1161,799,8,-48,-44,-12,-569,-1145,524,-46,-41,-47,-148,-82,54,25,-17,-7,147,139,373,-17,-14,0,83,38,79,25,-77,-23,-358,-107,-106,-36,-9,-9,313,199,57,3,-31,15,73,113,-102,19,-43,1,-91,16,-83,15,17,8,357,-149,-321,-2,-9,-10,-379,1,-73,-2,35,6,286,30,-83,-5,3,-7,-120,-115,-46,-8,-3,13,-60,141,110,3,10,1,253,-104,-325,-17,7,-11,-373,-33,217,8,4,4,28,62,-42,2,10,-4,42,18,-32,-3,2,0,-27,94,98,7,-14,4,-8,-28,-71,-4,17,1,-28,-52,36,-7,2,-3,121,15,-26,13,-17,7,-84,32,62,1,-1,0,10,-86,-103,-10,15,-7,12,41,42,7,-9,5,-31,1,-32,2,7,-5,-33,-19,61,-8,-9,-1,-40,55,31,7,10,4,133,-82,-145,right
12,179,-6,-683,359,-495,42,22,72,396,3,180,-56,0,-17,384,-485,640,-21,-106,-28,-81,44,-98,-10,14,-6,192,24,306,20,-36,-11,-69,100,95,12,-42,-7,-324,-215,21,-3,-29,-9,338,370,-99,-4,-20,1,-569,-305,3,-18,4,2,253,45,30,-3,-23,6,401,65,-78,-1,-13,2,-55,-69,45,11,-11,-1,128,213,-125,7,-8,0,-366,-103,-135,6,50,0,116,-68,-216,-2,2,-5,-53,127,90,0,-3,8,62,22,64,-5,10,-2,-104,-125,4,4,-4,2,90,96,-163,0,1,3,-148,14,98,-5,10,2,89,-101,-122,0,0,-3,-33,41,32,2,4,1,62,-16,5,-3,-6,-1,-5,-71,-40,-4,1,-7,-86,100,64,3,-5,9,52,-69,-80,4,5,-1,-37,70,-8,-8,5,-4,-22,-43,82,5,-13,3,163,60,-146,2,16,-7,-190,-45,171,right
-19,-154,-13,24,-3,-775,5,6,-20,-86,93,-347,-5,16,-35,-165,-45,-347,56,121,14,435,659,-432,92,170,73,-846,173,994,-30,101,88,985,-794,318,-62,-77,-46,-103,-163,714,-37,-81,-35,-40,-159,257,-12,-11,-10,-419,-28,242,22,-44,-11,338,119,-240,-19,2,-11,-59,37,391,9,-53,-9,-136,46,35,20,-16,-6,271,104,-35,-15,2,2,220,-20,-34,21,-53,8,-725,78,141,-5,20,11,630,-50,-394,-18,-19,2,-241,-83,-44,10,-6,9,104,133,-179,9,6,5,-159,-125,-266,-12,39,-10,188,-9,-117,5,16,-1,-139,20,20,-2,0,5,64,-48,-12,-5,3,-3,-61,35,-43,-8,26,-8,161,-68,-28,1,-28,1,-161,104,113,7,5,5,42,-28,-46,-12,7,-7,-60,38,111,7,-20,9,29,-24,-62,-2,14,-3,-72,6,-2,-1,1,-4,35,-46,18,right
9,-156,-20,138,173,-917,10,30,4,-143,65,-262,31,34,-17,-537,108,-362,-79,87,10,533,-299,65,29,48,-51,-273,410,257,31,116,80,-78,98,1116,79,33,57,308,-20,-364,-61,-14,6,6,-716,716,-53,-67,-45,73,34,39,22,-11,2,-342,-73,410,4,-37,1,671,209,0,-12,-18,-25,-492,-170,30,2,-38,-6,-42,49,284,-17,-36,-7,537,105,-216,-1,-9,7,-163,-41,-2,1,-25,-18,-204,5,-54,5,0,4,184,203,-257,-14,-16,0,-202,-29,-93,26,35,29,12,39,-260,15,12,0,-60,-53,-87,-8,10,0,-20,14,-100,-5,29,-13,82,-10,77,-4,-2,6,5,63,71,7,0,9,137,-38,-220,-7,4,-2,-147,-70,179,-6,0,-4,117,-38,-95,8,2,-4,-119,19,25,-9,-1,0,166,24,-60,11,8,0,-51,-16,130,-10,-14,1,-77,-37,14,right
-22,-156,-5,83,19,-894,10,36,-4,-85,-1,46,53,28,-3,-237,220,-521,-20,122,2,303,-413,460,1,15,-41,-640,649,-183,-10,106,67,322,-448,509,-1,-9,-12,565,290,91,-12,13,31,-523,-406,460,-23,-42,-17,198,-34,225,2,-32,5,99,88,197,8,-16,-5,3,20,98,13,-36,-5,-81,-110,216,-2,-18,-14,-28,-8,-141,3,-23,-18,-54,147,-58,-6,-25,-2,123,115,149,12,-13,-1,-291,-34,-34,4,-9,13,259,130,-239,-8,13,-1,89,-86,-92,-1,-5,6,-108,39,-23,7,-2,17,-15,-53,-163,3,36,0,296,-19,-223,-6,-11,-3,-418,-106,130,8,23,-6,200,68,-78,-8,-1,-1,26,-72,-60,-5,14,-4,-92,-9,46,2,-8,-4,-55,136,75,-2,4,5,72,-86,-55,-2,-3,3,-20,0,39,1,-3,-1,1,25,29,2,-2,0,-38,-66,-54,right
23,155,18,-34,461,-595,18,20,9,-165,-264,462,-23,-11,7,396,-187,337,-14,-53,-21,-151,58,245,4,-29,5,96,-92,414,4,-44,-12,128,52,-210,2,-19,-17,-307,-75,135,-4,-61,-14,195,152,84,-2,-11,8,-284,-204,-265,-7,4,-2,102,108,26,3,-16,12,65,77,-199,7,0,10,-323,-115,-142,-4,24,1,371,8,-245,-6,34,-3,-167,16,-20,7,3,1,302,3,-44,-10,-3,0,-315,56,103,3,10,-1,206,-55,-121,-6,10,-6,-69,56,59,7,5,3,28,-56,-28,-13,-6,0,35,54,-19,7,1,-4,-130,-30,22,4,5,6,42,74,13,-1,-7,3,29,-64,-44,-3,7,-2,-21,13,48,2,-14,2,-1,41,35,-1,13,-3,8,-70,-95,4,-6,0,40,59,19,-2,-4,2,-37,-26,41,2,2,-4,-27,-13,31,0,0,-7,81,38,-98,right
10,154,35,-478,206,-191,-12,-2,7,680,-166,322,-21,-58,-27,-374,-84,314,6,-12,7,16,-13,280,17,-50,-7,197,105,-78,-2,-34,-8,-235,-202,173,1,-25,-13,120,163,-113,10,3,-6,-211,-118,-323,-24,-12,8,175,175,360,12,-27,17,165,-6,-225,-7,-7,1,-209,-123,-58,0,30,5,383,9,-326,2,2,-17,-250,12,92,1,14,1,-3,81,-26,22,-1,11,78,-16,-119,-11,18,-4,75,-9,-6,0,-1,-2,-200,-37,-44,-2,8,-4,-14,33,134,2,-15,11,141,-59,-175,-10,17,-11,-123,6,128,1,-9,9,-24,8,-50,4,10,-7,-12,20,74,2,-11,3,119,-18,-70,-5,3,-4,-113,-14,-38,1,0,3,-2,16,73,6,-8,0,-36,-56,2,-3,16,1,134,42,-20,-3,-16,1,-76,71,-18,5,13,3,3,-96,-97,-2,-4,-6,4,27,97,right
19,-159,-3,188,63,-517,-2,-14,-5,-316,111,-651,16,57,-20,-306,-97,-374,-16,122,-5,689,36,-267,3,90,10,-538,-24,719,15,57,41,265,229,365,2,25,24,-56,-329,411,-57,-41,-22,214,-158,431,-5,-38,-16,-97,100,160,10,-34,10,-87,-9,378,-11,-11,-1,52,32,-101,11,-31,-18,-99,4,286,-10,-25,-11,-62,54,40,19,-14,9,74,64,-166,3,-24,-3,227,-26,52,-10,-20,9,-40,-27,-135,2,-2,-3,104,55,-242,9,-8,9,84,54,-108,19,-15,8,-152,-23,-272,-6,53,-13,-115,-43,-91,-3,8,-3,-85,17,26,-6,6,-4,45,41,11,4,11,7,-55,-53,-15,-2,14,-2,21,-25,4,1,-11,5,58,10,105,-2,7,-2,-13,-56,-46,-4,-11,-1,-44,13,29,7,-6,-1,42,-18,-99,-5,15,-2,-30,42,122,-2,-6,2,-17,-1,-78,right
85,156,-3,-148,953,-1193,34,85,97,136,-746,1015,-74,-85,-35,-51,-637,328,-56,-35,-65,-107,151,414,14,-39,19,71,167,236,-21,-30,-7,401,-103,-215,-1,-28,-13,-346,-83,233,-2,-32,-2,401,241,-79,14,-18,1,-29,-40,-227,5,-28,-5,-365,63,20,8,-1,3,279,99,-315,-4,6,13,-201,-94,32,11,-10,-2,177,246,-250,-11,25,7,-253,-269,30,9,14,-2,181,124,-109,-6,19,-4,-98,-76,87,-7,1,3,4,33,25,4,9,0,81,-47,-54,3,6,-2,-10,37,103,-7,-15,-4,2,-36,-41,-2,2,-7,-86,41,59,3,-2,7,35,32,-38,6,0,9,-15,-78,-74,-8,5,-4,-5,-34,71,2,-7,-1,12,85,-59,13,3,0,-18,-29,-16,-9,-1,-4,49,-19,10,-1,5,2,-51,-10,54,1,-11,0,9,-5,-68,5,12,-1,-16,10,41,right
26,163,-28,224,377,-626,16,25,66,-352,-245,690,-33,-27,-5,481,-159,216,-9,-61,-7,-182,-70,466,0,-44,-4,-120,-114,-37,20,-35,-5,78,105,129,-16,-17,-8,16,-187,13,7,-34,-20,-294,96,-51,-3,-8,8,361,154,-206,0,-6,-13,-233,-77,-12,-19,-10,-3,45,78,21,6,0,11,2,24,-270,-5,-12,11,171,88,-142,4,6,-7,-126,-5,-36,20,27,6,-175,-21,-116,-8,24,4,160,-79,-97,-9,6,-7,-44,98,156,5,4,4,113,-119,-181,-5,-5,0,-187,71,89,5,4,1,137,-72,-144,-8,8,-5,-121,77,144,-1,-12,5,52,-23,-103,1,12,-4,-24,7,93,0,-9,6,107,-23,-54,-3,1,-3,-138,29,25,9,-4,0,36,-8,-36,2,11,-4,-25,-20,70,-7,-9,0,151,55,-8,-1,-2,4,-111,2,-55,11,0,-3,-13,-40,26,right
-6,155,15,150,196,-348,6,-1,-2,-336,-105,586,-21,-32,11,145,-104,176,9,-29,-4,37,19,171,7,-45,-5,74,-38,297,11,-27,-10,-228,-44,-174,5,-25,4,125,55,-155,-7,-25,-17,260,22,91,-12,-20,3,-330,-179,-13,-4,-2,-8,40,84,-203,-4,4,15,287,-23,-221,-4,-2,-12,-224,108,6,6,17,10,115,43,-116,5,7,4,-42,-28,-104,-2,22,0,30,26,18,2,4,-4,-50,59,-1,3,6,8,25,-55,29,-6,1,-2,11,33,-43,-5,3,-3,24,-65,7,2,-9,5,-118,-29,-42,0,11,-2,127,5,15,-4,-3,-4,-111,8,44,2,6,-3,34,-26,-4,3,-17,3,41,81,-24,1,8,-2,-71,-67,8,-2,-6,-4,21,100,2,0,2,8,-97,-109,27,5,-1,-1,143,76,-10,-4,1,3,-40,-42,-13,2,5,-4,2,6,9,right
23,156,-20,203,240,-659,26,27,58,-262,-194,567,-27,-44,-11,-154,47,436,-24,-24,-5,284,-261,-75,1,-28,-9,-194,151,434,4,-52,7,13,14,-378,-1,-18,-18,-97,-7,114,-4,-55,-13,240,33,123,-3,13,6,-150,-140,-15,-7,-13,-9,316,9,-160,6,-15,1,-280,149,159,13,15,19,26,-310,-222,-9,-6,-18,-63,272,-51,4,28,20,93,-119,-79,-7,-9,-9,28,9,-202,-7,15,1,-83,128,84,2,-8,7,132,1,-141,5,10,-4,-150,62,101,2,7,1,141,-136,-156,-8,14,-8,-16,83,115,7,-9,6,71,-29,-67,-4,-3,-1,-89,5,60,1,-2,-2,60,-13,-49,-1,8,0,63,63,19,-11,-19,2,-67,29,66,13,14,2,-41,-78,-59,1,-3,0,-12,17,0,-4,-8,-3,-49,-6,-38,7,8,6,28,7,114,0,-11,3,90,-82,-73,right
53,163,58,233,114,-1,-23,-17,-28,-681,-609,579,-11,-76,-17,746,398,-200,-11,-18,-24,-741,-239,104,20,-55,0,383,486,-259,-41,11,-1,-190,-248,117,10,-50,-9,-49,129,-189,2,13,-17,339,148,264,-1,-17,25,16,-143,-136,4,-16,-9,42,133,-134,5,26,7,-185,-213,130,2,-23,-11,190,289,-197,14,25,9,-267,-167,29,-1,12,0,162,53,-87,-4,-3,-1,-48,1,10,2,7,9,-115,-126,-35,-10,10,-10,174,55,-105,-2,6,8,-197,16,155,0,6,0,150,-92,-133,-7,-8,-7,-62,165,129,16,-5,15,-24,-163,-52,-9,11,-20,3,88,34,-3,-4,12,85,50,-23,8,-7,2,-73,-24,26,0,-1,-1,100,-10,-21,0,4,-3,-34,-3,-6,-3,-7,1,37,-26,-42,1,-5,-6,-28,72,29,6,11,3,-20,-100,30,-7,-5,0,-50,70,0,right
36,155,-11,-406,232,-388,13,37,76,197,89,257,-16,-11,-12,-187,-588,218,-41,-40,-33,498,64,319,21,-66,0,-77,58,-80,-9,-20,-2,-10,-28,296,-7,-22,-14,-113,21,-216,8,-43,-8,34,31,143,-9,1,-3,281,-27,8,1,-32,-12,-26,98,38,2,-9,-3,68,136,-11,10,-5,18,-70,-216,-177,-11,-10,-11,-57,127,-272,4,30,6,100,59,-75,-5,-4,6,-311,40,87,24,19,10,200,-5,-215,0,18,-4,-33,-27,86,-8,-14,1,-69,-68,-79,6,16,-2,38,-42,-40,-6,-2,-2,-38,85,101,4,6,1,36,-123,-43,-9,-7,-7,-65,45,52,-1,-2,3,2,-18,-73,4,11,-6,-60,21,64,1,-6,5,54,81,14,2,3,8,-81,-73,-31,0,3,-3,135,-47,-41,-1,-6,-4,-89,81,95,2,2,6,34,-68,-94,-7,7,-9,-50,13,19,right
52,142,38,269,521,-478,-25,50,26,-819,-685,652,-49,-58,-21,957,62,95,-10,-40,-5,-352,-92,153,25,-25,6,164,21,-21,-16,-12,-27,21,-10,140,23,-31,-20,-210,265,-18,1,-16,-4,33,-138,73,0,-18,-12,-61,291,-109,-1,-15,7,-94,57,4,6,-41,11,172,-10,107,-3,12,10,288,-197,-79,0,-23,-1,-446,18,-29,8,19,4,361,-35,-324,-2,3,-19,-111,-18,11,2,31,8,-76,-9,-91,24,-2,20,64,47,-149,-14,30,-11,20,-181,-23,-14,2,-1,-90,29,123,5,-7,3,65,-13,-83,-8,7,-11,-72,16,58,1,-5,2,-7,92,76,1,-3,0,41,-36,-56,-1,4,-2,-40,1,36,-3,-18,7,-28,63,0,7,14,-4,72,-70,-45,-5,-7,2,14,71,64,6,-10,6,-13,-18,-60,4,12,-2,-44,-83,13,-10,1,-8,34,14,-24,right
52,146,20,-761,386,-218,-7,30,43,705,-245,148,-39,-45,-22,-355,-372,313,-15,-31,-10,402,48,220,14,-42,-4,-251,82,-106,-2,-9,-12,370,-89,145,-4,-31,-24,-339,-15,9,-4,0,5,222,314,-91,0,-17,1,78,-12,117,0,-8,1,-162,-130,-16,1,-23,-2,-187,74,20,-8,4,1,490,62,-126,11,-21,19,-451,30,-77,1,25,-5,368,-121,-313,6,14,9,-153,58,-4,2,11,-3,106,-141,-87,-8,7,-19,-60,101,91,4,-8,10,39,9,-73,-2,13,-3,31,-75,-20,-5,-5,-7,-176,114,124,5,10,12,87,-68,-66,-1,-5,-1,-2,6,-11,-5,-7,-3,-8,-3,43,-1,8,-3,69,27,-2,4,-13,5,-85,-22,-53,-2,5,-5,-3,-33,-40,-7,8,-1,48,42,53,4,-6,4,56,36,39,7,-11,4,-138,-33,7,-5,8,-6,39,-32,-42,right
44,159,11,-778,277,-494,4,66,64,710,-262,383,-44,-46,-42,-543,-279,442,-31,-71,-6,993,109,-121,11,-30,-9,-549,-43,322,-3,-33,-5,102,50,124,-1,-23,-6,-4,46,-257,8,-35,-6,155,287,77,-16,-9,10,-78,-96,143,6,-1,-24,-77,-75,-186,5,-8,0,256,230,60,8,-8,-2,141,-98,8,9,-15,5,-561,-17,64,6,14,17,591,-16,-439,-7,6,-13,-323,-46,207,9,-2,19,-99,13,-161,-3,27,-8,-7,-113,-171,-11,4,-8,82,71,-17,7,14,3,-34,26,90,-2,-7,8,-3,-28,-8,3,-9,-1,-18,-58,-58,-5,18,-8,107,-16,-36,-9,-7,5,-46,95,55,8,-5,-3,-117,-47,29,-5,5,1,115,17,-48,-1,-2,-6,-32,86,75,10,-4,9,-4,-86,-15,-7,-2,-1,10,38,-48,6,6,0,73,-37,-68,-2,-2,0,-65,-13,104,right
19,155,11,-23,648,-640,22,22,44,-521,-596,562,-50,6,-18,647,-299,262,-18,-60,-21,3,123,366,22,-63,6,211,-91,-86,-23,-20,-19,-117,153,163,17,-46,-6,-106,14,-182,-11,-24,-24,-179,25,-10,5,2,2,-126,147,-57,5,1,4,214,230,-20,4,-28,15,-224,-174,-42,18,9,13,315,227,-143,3,-3,7,-85,-350,-48,-2,16,-12,-5,33,-74,8,15,-5,6,-84,5,-8,11,0,84,-78,-116,1,8,-2,-73,188,149,-3,-8,4,126,-48,-90,2,7,-3,-115,-146,-91,-4,6,-2,34,72,71,-8,-11,2,-35,47,22,8,3,4,-14,9,-1,1,4,2,36,-44,-63,-4,-1,3,-71,-65,-5,-2,-4,-7,20,54,-20,-1,2,-1,-45,-17,68,2,-4,-1,21,53,-6,3,4,2,-41,-41,-22,-5,1,-2,9,-44,37,-2,2,-5,60,74,-38,right
19,151,33,-91,143,178,2,-23,19,-173,-371,-176,-38,-11,-25,127,-51,460,8,-47,-1,200,97,-50,5,-15,-9,-277,-72,-175,10,-46,-5,390,421,108,-18,13,-10,-348,-418,109,-4,-61,3,191,374,18,-4,-15,-10,44,-68,95,11,-1,14,85,-115,-95,-1,-6,-10,-45,67,-308,-1,28,9,-251,16,186,6,-14,3,341,54,-298,1,28,-4,-192,-24,181,3,-6,2,-8,-1,-160,-4,15,-2,73,-23,-29,3,8,1,-172,16,23,2,4,5,46,-72,-72,-6,6,-4,57,15,2,0,-2,1,-88,-36,46,-5,0,2,83,-40,-29,2,-6,-1,-60,98,39,2,5,0,46,-115,48,-2,-2,-1,-25,101,3,-4,-7,-1,32,-16,-35,8,6,0,28,-38,-68,-1,-3,2,29,60,11,-9,-9,1,-161,-46,32,8,23,-10,102,32,-29,0,-4,6,15,27,14,right
22,157,34,-550,14,-485,-5,28,-1,286,-111,436,-24,-40,-14,374,-10,303,14,-67,-7,-195,-111,56,-15,-5,-10,130,166,39,7,-53,-4,-56,-5,170,-9,-25,-8,92,138,141,5,-12,8,-70,93,37,8,-43,3,-3,-123,-208,-9,10,1,85,66,33,9,-14,9,-249,-172,-228,5,22,-5,288,107,-169,2,10,-9,30,-8,-74,6,3,2,-225,-39,-53,-2,28,-4,19,53,-4,2,-8,4,-27,-51,-21,-8,18,13,89,-91,-41,-7,3,-5,-76,8,-12,-9,6,-6,175,31,-11,6,-9,-3,-154,43,141,1,0,7,62,-57,-61,1,-1,-2,-52,22,5,0,8,-7,73,34,24,3,-21,2,-83,58,69,8,3,9,29,-60,-99,-9,5,-6,41,-8,-11,-4,-9,-1,-50,41,50,13,9,7,7,-54,-56,-10,-3,-2,-95,-41,58,-2,12,-7,140,50,-79,right
27,153,6,-257,411,-603,7,41,50,-21,-350,649,-35,-35,-16,261,-338,233,-4,-54,-26,-21,30,433,20,-55,3,54,96,-257,10,-44,-17,-218,39,45,-14,-36,8,49,-41,158,-2,-26,-13,51,81,-298,-1,-12,-8,-169,214,-14,-3,33,18,157,-145,91,-1,-17,-2,174,57,-82,3,18,1,54,17,-46,-5,-13,-9,-19,-122,-115,-4,11,-2,-95,161,52,9,1,17,-22,-52,-149,0,23,-5,30,-85,-15,-5,8,9,-188,-62,-20,-4,2,-12,74,54,54,2,3,5,59,60,-79,1,9,-1,-50,-63,75,0,-14,-5,27,53,44,2,16,-1,169,-83,-105,1,-13,-3,-51,196,182,16,-23,14,19,-116,-154,-17,12,-7,-77,-4,-61,3,-2,-2,28,54,-12,3,5,-1,-110,17,27,-5,1,3,-15,-48,-3,-7,14,-2,139,-16,-30,15,-3,6,-106,28,136,right
9,156,18,113,448,-692,8,-1,14,-314,-557,710,-26,-36,-15,302,-68,160,-10,-55,-9,172,132,220,5,-35,7,-155,-249,73,8,-35,-20,-21,134,-120,3,-16,1,65,7,23,-11,-14,-17,-119,81,-204,2,-27,-2,-265,-44,106,-13,-5,19,414,143,-186,-7,3,-7,-111,-85,-42,0,18,8,193,107,-12,12,-7,-3,-370,-35,64,0,27,-2,215,-61,-54,6,0,2,-46,87,-56,-3,-7,1,-111,-39,-5,10,12,2,123,28,-109,-10,3,-1,-169,-59,76,5,3,5,153,-31,-75,-2,0,-2,-19,35,11,2,-4,1,72,-9,-18,-1,5,-6,-201,32,92,-6,1,-1,168,-51,-39,5,-6,0,25,103,-15,7,-3,8,12,-47,-27,-8,5,-6,-39,16,20,3,-5,1,75,14,11,3,-3,0,-78,-42,4,-2,1,1,-58,-35,-23,3,1,-2,2,8,15,right
43,150,33,314,131,-424,24,2,21,-787,-323,396,-56,-25,-35,731,-54,286,-21,-61,-24,-405,95,77,8,-23,3,-96,44,42,-18,-29,1,57,91,-113,0,-4,-14,131,116,263,6,-27,12,71,-79,-1,7,-19,3,102,54,27,8,-8,-2,88,-164,-205,-7,-9,-5,-305,29,116,12,15,7,273,134,-298,3,0,2,-118,-91,-35,-1,21,-1,-40,61,31,0,1,-3,7,-46,-143,4,15,3,-11,18,-10,-9,2,0,3,-42,-59,-3,3,-1,-101,-1,41,-1,-4,3,-21,8,-39,0,21,-2,114,-6,-39,-4,-3,-7,-25,49,134,12,-13,13,40,-76,-53,-10,7,-7,-21,21,29,-2,-4,-4,70,52,-11,11,-10,7,-83,21,63,-1,1,2,60,-116,-111,-6,13,-8,-11,61,77,2,-13,5,-25,5,-4,4,3,-1,-72,20,-22,-6,4,-4,119,8,-53,right
55,147,54,-351,75,-23,-39,-2,-4,60,-318,206,-25,-43,-36,108,-32,385,1,-36,13,313,103,31,4,-26,-15,-172,37,11,4,-60,-16,-184,48,31,-16,6,-1,17,36,-82,5,-22,-1,152,185,37,11,-32,9,24,-23,88,12,-6,1,105,-136,-174,-9,14,9,69,-85,-336,-8,7,-16,-158,-93,68,0,12,7,-80,69,-139,9,23,-8,-102,69,-113,-13,17,10,280,-33,123,-5,-14,0,-154,43,-47,-4,21,-6,-100,6,48,6,-7,3,121,-44,-110,-4,4,-4,-20,77,85,7,-4,9,-52,-36,-25,-2,2,-1,105,14,-30,-3,-1,-4,-19,-26,32,-1,1,4,29,4,46,-2,-13,2,60,49,-37,7,7,-4,-80,-60,12,0,-1,-2,32,-15,2,-6,-10,3,-79,19,-8,3,11,-2,-2,25,-108,-10,3,-3,-4,-33,60,11,-1,5,22,28,-8,right
-58,42,-144,-115,-297,-21,-14,6,-20,421,79,-379,-10,9,18,-245,172,406,-3,-5,32,273,279,-16,24,-11,55,17,54,33,30,-34,28,-135,263,52,12,13,51,23,-78,111,6,-40,0,-435,138,157,1,17,9,175,-125,-339,25,-10,-9,-270,-200,93,2,17,28,191,-168,-90,-20,5,-21,-56,-170,-217,11,-1,18,129,91,188,15,-16,-6,381,152,-386,-7,14,5,-297,-124,290,5,0,-15,193,9,-148,-6,0,-12,-92,100,372,4,-7,0,-16,-110,-4,-10,0,-10,-29,-112,-79,-2,4,-7,-38,64,13,5,3,-8,17,7,-17,-5,4,-2,-13,9,66,5,-6,7,-58,-17,-67,4,5,-1,105,-65,-85,-2,-7,-2,-87,39,124,-2,0,0,23,-22,-48,-1,5,-3,-32,61,-7,3,-3,3,-49,-42,4,-3,2,-1,23,8,-35,2,5,5,14,11,12,up
29,-51,148,85,-119,211,-1,-19,3,-170,-240,9,0,35,-53,78,-327,-324,1,58,-45,603,-249,-586,-43,9,-73,-495,311,555,-1,-2,-30,-79,-34,111,-18,-5,-66,-90,-58,-334,-56,16,-56,-41,263,43,-29,10,-11,11,278,428,5,-23,35,105,264,130,-6,17,31,220,85,-59,22,-31,44,-304,139,344,46,-4,25,187,-86,-292,9,-5,56,-95,-106,-148,4,6,12,-237,87,80,-5,-3,31,-191,80,-56,26,-9,-5,299,59,-201,-15,9,14,275,-68,0,-6,-11,22,-242,84,166,11,-34,-12,79,-30,-217,6,40,-16,22,-44,176,5,7,-6,93,-148,-90,4,-8,-10,39,-101,-28,-4,5,-17,-162,-48,107,-1,6,-5,109,-30,-13,0,-4,-2,-36,-29,-65,-3,2,-4,22,19,46,-2,-3,-3,-35,-34,-28,0,7,-4,1,36,26,-4,-6,0,11,80,21,up
35,-54,165,103,297,501,41,-50,63,54,-590,-457,-52,33,-93,-428,-285,80,17,65,-68,625,-309,-786,-1,52,-66,218,-221,-368,-49,-12,-67,-886,645,1089,-12,-20,-42,549,-191,-717,-32,33,-60,-503,270,558,-30,-26,-16,-150,287,399,-11,-3,25,359,97,-218,14,10,33,123,193,190,26,-23,47,19,99,134,3,8,36,63,-27,-166,23,-25,44,-343,240,236,38,-13,18,-134,-80,-129,16,6,1,412,-124,-511,-16,26,21,-123,-56,122,-15,-21,17,-309,-128,-3,19,-5,14,291,50,-93,-12,-18,-1,-262,-215,-59,1,21,-36,201,200,125,-4,17,9,-94,-84,54,12,8,-14,188,-48,-85,-1,-4,-13,-42,63,125,0,3,0,77,-80,14,4,-10,-2,23,-29,-66,-2,-5,-8,-52,52,49,-6,15,-9,74,112,12,12,-4,7,77,-10,-7,7,-10,5,35,-179,-85,up
-69,48,-136,-379,-111,-14,-1,19,-12,382,67,-74,-13,-36,10,-183,280,463,3,-1,25,155,24,-201,0,-3,31,-71,163,160,34,-11,33,14,65,-32,17,-6,25,14,-116,-113,14,-16,19,-351,266,327,26,9,18,57,-379,-402,-16,17,17,67,59,-83,22,-5,4,-226,-219,15,-5,-20,20,221,207,66,0,1,-25,33,-249,-307,-19,17,-4,87,54,194,15,-15,16,-139,-18,-49,7,12,-17,149,-81,-101,-15,14,-19,-72,67,191,3,-9,4,44,2,33,8,-4,0,58,22,-97,7,3,-9,-77,-107,50,-14,9,-10,90,-17,-34,0,-4,-1,-74,-14,45,-4,-1,-1,11,6,4,3,-1,-1,6,29,-3,2,-1,1,14,-6,-18,-5,5,-3,-5,-21,9,2,-1,2,-40,37,53,3,-3,4,33,15,2,0,-2,-2,28,54,7,2,-4,3,-5,-70,-40,up
35,-49,148,-86,103,345,34,-3,46,254,-676,-363,-23,28,-63,1,-129,16,-28,30,-40,-134,-595,47,-41,20,-85,248,349,-403,-18,28,-41,-249,-168,237,-25,-28,-96,19,661,-138,-33,6,-52,-82,161,-78,-22,-3,-23,-89,322,286,-1,-4,42,-69,118,267,12,1,24,222,244,5,34,-5,61,34,11,139,18,-13,30,-116,71,-28,10,-3,47,65,54,-28,20,-17,22,-230,-76,22,1,4,22,74,-61,-269,7,1,20,-172,-233,-176,20,-1,-24,291,209,-144,-21,0,3,-521,-139,407,9,12,3,385,6,-358,-2,6,4,-204,-59,266,9,-10,2,325,47,-184,3,21,-16,-67,-261,41,-9,-4,-10,113,61,-14,-4,-3,-14,6,-12,62,-3,10,1,6,-20,57,2,-13,-3,118,3,-108,3,-4,-4,-243,-25,113,-3,3,-3,81,-7,-73,-1,5,-2,-7,33,26,up
29,-62,141,223,-240,-33,-3,-6,19,121,-442,-228,-40,8,-58,-120,64,139,11,16,-26,-203,-198,-1,-11,20,-71,159,345,-274,-2,28,-67,-570,-36,401,13,49,-59,622,268,-614,-61,-12,-50,-423,1,909,-28,-37,-10,228,490,-157,2,20,9,98,-133,-67,3,-12,40,-165,357,485,31,-22,59,-57,-264,-212,16,0,36,217,215,-218,21,-21,44,-434,-80,206,23,-4,42,223,12,-346,-1,8,10,-46,-142,-99,6,-3,11,-235,110,258,0,7,-1,443,-62,-186,1,-15,7,-61,-198,52,-4,8,-19,-52,-49,-139,-13,7,-22,-18,9,173,-13,4,-20,177,9,-66,10,-3,4,-213,33,213,4,-5,-6,104,-41,-170,1,10,-2,-61,-37,5,5,3,-1,191,23,-80,-3,-3,-3,-75,-61,-95,1,-2,-6,61,-8,21,-5,3,-2,-119,66,100,-1,-6,6,18,-24,9,up
29,-68,137,154,-221,-68,13,-3,16,4,-301,-128,-39,15,-43,-412,160,352,11,36,-52,214,24,-363,-8,42,-38,135,-29,34,-38,-8,-87,-498,34,323,8,37,-35,232,101,-216,-35,-9,-71,-85,139,177,-5,7,-1,9,199,91,8,-13,25,141,-170,-41,1,11,23,264,17,-82,-10,-31,34,-59,356,311,20,7,43,-52,158,-50,34,-21,25,84,-31,-109,9,-8,18,-227,-13,10,2,19,19,-88,-328,-373,-12,-7,-10,9,234,285,34,-3,20,-43,-173,-251,-16,23,23,249,137,25,-1,-50,25,-150,68,81,28,-25,10,235,-234,-296,1,52,-25,-144,22,166,-13,3,-25,-113,-124,80,-6,1,-21,114,136,56,5,-3,-6,-66,-120,132,-5,2,-5,115,-73,-121,-2,3,0,-92,26,35,-1,-7,-3,70,-22,-61,2,1,-3,33,52,-2,-6,2,-6,-73,-49,17,up
5,-53,163,216,-15,84,44,-8,39,56,-497,-37,-13,0,-26,130,-435,-359,1,9,-81,-307,12,108,-29,47,-67,90,-134,-271,-78,27,-119,-244,675,269,-12,31,-77,-238,309,191,-10,9,-41,408,291,-305,1,14,15,-72,-227,409,-3,-47,38,-23,219,196,-2,6,47,-35,-95,8,3,-30,55,-18,374,24,45,-4,38,-191,108,126,15,-5,19,279,74,-138,23,-15,39,-298,-273,88,-21,13,14,217,89,-396,27,-15,22,-459,55,264,17,-4,4,383,79,-249,14,-2,-8,-33,-526,-165,-23,36,-15,96,47,156,-7,-16,-11,-119,-111,-116,6,9,2,116,145,-20,5,9,-14,2,-41,173,-9,2,-17,133,-52,-72,-5,-8,-4,-99,81,83,12,-1,-1,25,-92,-20,-9,3,3,27,-42,-13,5,12,0,52,-21,5,-2,-12,-4,-16,-21,3,-4,-16,-2,16,39,9,up
-76,30,-146,-359,-208,-196,-12,22,-21,15,-12,241,-12,-6,-18,312,363,3,-6,-5,39,-152,163,346,23,-19,52,277,230,-99,17,-5,45,-189,-56,63,13,1,23,-59,68,-51,27,-21,33,-110,61,-106,21,6,20,201,-1,-125,-10,-5,10,-330,-153,11,14,19,17,174,64,-34,4,-34,6,-99,45,-98,28,9,-1,88,-233,45,-12,24,2,368,-173,-247,4,-21,-12,-374,-37,242,3,17,-8,297,-14,-111,-1,0,-11,-155,-134,80,-13,5,-22,23,-28,-48,-10,5,-17,8,12,90,5,-10,2,-37,40,17,0,3,0,67,25,-23,-4,-9,4,-4,65,-1,4,5,-4,-23,-46,16,1,-3,7,31,64,13,3,-1,1,-10,-152,-87,-7,-1,-4,13,55,18,2,-3,-3,54,18,-117,-3,2,-4,-149,66,217,6,2,8,66,-130,-121,-3,-1,-3,-76,103,113,up
37,-53,153,176,-215,222,18,-13,15,354,-585,-651,-41,35,-77,-26,242,108,-31,-5,-49,-773,-525,416,-6,38,-93,402,787,-492,12,51,-52,-602,-399,558,-33,-12,-66,614,526,-440,-44,-1,-9,-133,96,54,-10,2,4,12,0,131,-10,3,48,142,237,66,32,-24,47,-159,141,404,41,-16,44,214,147,-236,3,4,31,-213,-11,116,16,-33,23,-401,28,122,21,-1,10,241,-52,-431,2,16,16,-120,-275,166,2,3,23,247,-189,-252,10,-15,-3,-179,14,-14,7,27,-8,490,25,-197,-13,-5,9,-382,78,428,0,8,-21,100,-129,-261,-15,9,-37,44,124,187,0,2,5,-46,-177,-58,-6,-1,-8,135,194,83,11,-24,14,-115,-211,-92,2,13,-5,40,120,16,-3,-1,-4,5,-60,-79,-4,6,-6,-43,9,31,3,5,-2,73,-36,37,-3,-3,-1,-24,26,9,up
26,-42,148,-245,250,443,36,8,67,365,-477,-316,8,-1,-51,406,-140,-304,-5,-13,-64,-480,-278,403,-1,44,-87,1201,-224,-1720,-98,52,-137,-1686,-28,1494,-39,-9,-58,375,566,-67,-45,-20,-15,-124,24,201,-3,-7,18,-410,285,525,5,3,29,716,128,-838,1,-17,41,-367,228,625,34,3,40,261,-16,-387,17,-5,32,39,160,-98,23,9,39,-494,-355,4,27,-12,7,315,616,44,17,2,26,104,-210,-160,12,-18,36,-290,-54,136,6,9,-1,336,-187,-276,18,4,11,-336,-38,270,-3,-14,-9,432,-167,-226,-28,12,-15,-162,-140,138,8,5,-6,225,-5,-107,-18,-12,-29,-165,-24,156,-15,18,-17,27,46,88,-2,-5,-6,-28,104,-25,9,-15,7,-24,43,13,6,5,-2,-49,32,40,2,2,5,16,-141,-52,-5,-2,-4,-16,38,-16,0,-3,-9,-35,10,22,up
29,-47,164,257,-163,-1,28,-28,47,-363,-422,158,-17,47,-60,319,-308,-484,-42,44,-86,-540,-400,365,-4,33,-107,1134,788,-893,-25,7,-78,-627,-418,693,-49,-17,-58,-232,846,46,-15,15,-12,58,-181,52,-10,2,7,416,323,-174,-11,-15,37,-391,277,556,20,-18,44,59,183,79,23,-21,52,269,69,-251,35,-14,33,-275,44,179,12,25,19,-150,-237,-84,17,-37,26,-144,156,115,12,-5,26,431,-51,-531,20,0,28,-330,-23,362,7,-1,14,122,-301,-265,-7,-6,-8,-101,-167,-170,-3,24,-24,-26,103,111,-9,13,-18,206,-169,17,-2,-4,-16,-89,61,166,-2,-5,-10,186,-77,-116,-9,3,-12,-60,38,13,-2,14,-10,-82,-31,46,3,-8,1,29,87,44,3,-10,7,-14,-77,-51,-2,10,-1,14,61,31,2,2,1,-16,-51,-7,-1,-8,-1,-1,45,18,up
30,-44,155,-214,-131,228,11,-6,30,426,-416,-394,-15,20,-33,-193,-75,102,-31,6,-79,-318,-397,68,-10,41,-102,563,328,-690,-2,27,-67,-379,39,277,-25,8,-71,360,339,-308,-39,23,-37,-75,232,226,-12,-3,-7,-324,422,677,-9,-16,46,341,221,68,22,-34,56,-89,51,73,29,-2,58,9,-94,-143,39,-24,53,-264,69,107,28,-8,52,2,-278,-264,20,-18,13,108,-115,9,-17,30,-1,-169,-82,15,-9,12,9,196,-154,-35,6,-23,-1,26,103,39,-7,-6,-10,123,-126,-211,-5,26,-18,-173,37,295,-1,-2,-26,360,-70,-193,-5,-13,-14,-184,-30,24,-11,6,-22,-101,89,102,-9,-8,2,31,105,-89,20,5,5,-87,-54,-34,5,0,12,-87,-8,5,-12,4,-3,85,41,-73,19,4,9,-89,-65,82,-10,-5,-7,54,15,7,-4,5,-6,-9,65,-26,up
51,-56,143,99,-136,278,4,-18,38,104,-330,-179,11,42,-23,18,-303,12,-54,0,-93,-56,243,-252,-5,54,-96,63,-355,-194,-32,29,-104,-82,478,-290,-35,20,-40,293,188,353,-40,-45,-19,-389,71,37,13,22,7,-169,206,319,21,4,53,172,189,254,14,-25,43,13,93,52,25,-8,49,170,37,-167,18,-15,40,-300,-244,68,12,-25,33,467,157,-323,3,-2,2,-432,-53,293,11,-22,37,330,-97,-467,5,25,-15,-674,-120,408,1,-18,7,613,173,-216,0,5,-3,-368,-364,18,9,13,-6,239,140,-40,-20,6,-28,238,-53,-53,10,-3,-4,-443,61,367,2,-2,-6,270,21,-292,-11,1,-11,-164,-73,138,3,1,-2,27,-88,-133,0,4,1,-129,-63,29,-9,6,-4,19,-28,4,-5,6,-6,0,68,-16,3,7,11,111,85,38,1,-1,0,62,41,7,up
29,-46,148,-46,-184,-16,13,-3,8,113,-214,22,-8,0,-34,-99,-293,-28,-3,37,-74,399,344,-329,2,32,-44,-311,-668,94,-69,25,-123,83,617,-184,-25,10,-23,-202,-4,329,-37,-25,-53,423,230,-296,-12,-7,0,-286,291,410,8,-17,32,-259,71,204,29,3,40,201,97,-26,21,-11,58,-199,-36,84,21,9,33,-93,-1,-197,13,5,33,294,184,41,7,-43,59,28,15,-85,32,5,17,-194,-108,190,1,-25,5,-187,-187,-153,-6,12,-8,299,73,-16,15,-3,21,-293,-252,-44,-6,20,-36,553,-105,-366,-15,11,-48,-454,166,424,-12,5,-9,382,-144,-235,-7,3,-9,-247,61,202,7,-15,1,96,49,-132,1,9,4,-114,-5,142,0,1,-2,10,-1,-47,-2,5,-2,42,70,8,13,-14,16,-57,-37,-23,-12,22,-5,64,-18,51,4,-3,-1,55,-55,-39,up
28,-57,149,-143,-18,68,23,-25,34,300,-350,-260,-39,17,-58,-269,-128,-37,5,55,-55,-28,-361,-56,-22,35,-113,30,430,-145,-8,46,-78,-332,-320,393,-60,-2,-86,1011,344,-713,-47,7,-28,-560,210,755,10,-5,12,-87,451,415,2,-32,70,89,72,68,24,-22,66,-290,193,-19,56,-27,69,427,261,-251,17,-3,46,-664,-231,145,28,-16,61,506,-127,-621,17,36,-6,-113,-101,186,-2,-27,16,57,-168,-77,-10,10,-19,-41,-79,-31,-3,-13,-12,233,84,163,-8,5,-20,22,-176,-90,-9,16,-27,-382,-138,143,-14,-4,-32,354,115,-190,-11,11,-8,-178,11,164,10,-3,10,97,20,-102,-1,5,-2,-105,79,119,9,-6,12,81,33,-40,2,-1,2,-35,-81,17,-4,1,0,18,22,-53,2,-2,2,-64,-33,47,0,1,-1,1,-20,-48,5,1,0,-3,10,40,up
30,-61,145,389,-327,-147,-10,13,-9,-44,-233,7,-29,-6,-42,-87,51,-88,0,28,-79,-251,-382,-110,-19,57,-112,-33,593,171,-15,13,-80,174,-504,-351,-44,12,-60,170,673,-31,-25,-6,8,-945,173,908,1,-4,35,745,515,-129,38,-26,95,-383,94,330,35,-11,63,437,125,-309,28,-13,64,-105,-128,132,16,-35,41,-202,-276,-337,-2,41,-2,20,-212,28,7,-24,18,-38,-52,15,-8,15,-28,363,128,-83,19,-39,11,-145,-40,107,-9,16,-26,136,-173,-240,-9,21,-19,-112,-57,240,-6,-7,-13,58,-138,-244,-25,21,-27,-115,136,215,12,-14,-2,103,60,-97,11,-2,5,-122,-13,-21,-1,-6,8,73,-11,-107,-6,9,2,-3,44,43,-2,2,-1,-102,-55,80,2,-7,1,89,36,-66,-1,4,-6,-77,5,122,5,-3,5,13,-34,-73,-2,2,-2,11,59,10,up
36,-56,144,-140,-216,282,8,-2,22,499,-336,-389,-20,17,-55,-280,-101,102,-40,17,-55,-21,129,-216,0,35,-90,311,-348,-424,-16,38,-102,-505,660,329,-16,19,-44,385,-481,-281,-51,5,-38,-208,536,470,-5,-28,33,-494,196,643,5,-2,56,685,359,-377,32,-21,63,-475,16,471,36,-12,53,255,61,-348,6,1,27,165,3,-140,24,-56,46,-294,-282,18,-11,43,9,78,-135,-367,20,-14,5,-323,15,356,-9,5,-4,273,59,-220,0,3,-9,26,-77,121,-13,5,-3,176,91,-33,12,-19,-2,-69,-167,-15,2,18,-26,52,21,25,-15,19,-29,-9,-140,1,-4,-2,-12,-33,61,49,2,-11,5,37,109,-16,0,-1,5,-123,-22,-1,11,7,8,73,33,-46,-1,-3,1,-43,-53,49,-2,-1,-2,-16,-17,-11,2,4,1,3,-8,-29,4,0,-4,40,-27,-38,up
25,-57,151,-144,111,457,42,-45,70,472,-578,-559,-38,22,-79,-129,-171,-406,-34,43,-69,-572,-218,369,-7,57,-118,516,598,-386,-11,56,-79,-161,-398,430,-14,-12,-75,755,442,-1231,-39,25,-12,-619,-238,914,-28,-32,12,-265,378,773,-15,-27,53,-210,171,255,33,-11,46,232,219,-73,28,-2,48,44,241,40,31,-15,31,-97,-43,-110,4,-5,27,31,115,121,5,-2,25,-112,-22,-107,13,-20,16,293,-127,-496,3,17,0,-304,22,269,14,-3,31,322,-246,-301,10,-23,-19,-16,79,-4,4,28,-1,-139,-216,-15,5,3,-10,271,21,11,-1,-4,-22,-121,-90,177,-13,15,-12,-76,-121,-49,-8,-2,-16,114,130,-6,5,-23,6,-82,-22,3,-2,9,-4,0,8,-39,-1,12,-2,-26,-73,-2,-2,-8,-2,36,86,48,10,-1,7,-24,-89,-71,-6,7,-7,-73,22,52,up
52,-43,152,-18,16,279,7,-34,75,60,-460,-124,-10,11,-46,339,-212,-458,-29,54,-67,-758,-534,631,-14,47,-156,501,467,-633,-32,49,-108,-221,-296,65,-61,-27,-68,393,910,37,-34,-15,5,-275,-80,107,-5,-20,-1,152,531,97,16,10,49,56,56,117,27,-18,52,377,287,-135,46,-3,58,-245,-222,14,29,-4,51,-286,-26,118,7,-36,32,-189,53,23,-11,28,6,115,2,-174,12,-34,27,-515,-158,33,-1,29,17,658,233,-13,24,-29,13,-452,-420,-31,-8,13,-12,731,178,-103,10,-3,-18,-397,-416,-7,-18,28,-37,195,35,7,-8,-8,-19,-145,116,220,0,-6,8,187,-125,-165,-3,-9,-5,-234,132,133,0,17,-12,91,-77,-111,-1,2,-6,-82,145,178,2,-14,8,93,-95,-129,2,9,1,-98,40,57,-3,8,3,44,-3,-5,2,-9,-4,49,-19,-17,up
33,-53,142,123,-163,-86,13,2,22,-230,-422,31,-23,12,-40,304,-78,-297,-24,31,-60,-262,-101,172,-5,31,-47,205,164,-6,-21,-4,-76,-433,-76,210,-21,7,-56,304,603,-216,-17,2,-34,-153,-375,-42,-23,7,-18,324,253,-206,-10,-5,3,-352,317,528,0,-2,50,39,97,136,37,-1,42,164,149,-65,11,-13,27,12,14,44,16,3,38,-320,-115,81,0,-9,22,453,301,-45,16,-27,15,-461,-199,-107,21,14,22,282,137,-123,17,-24,20,-225,-198,35,4,3,0,-162,-126,22,-6,18,5,346,-333,-312,-1,-7,-27,-256,132,144,-17,26,-20,236,29,71,3,-7,2,-10,-28,21,3,-5,-17,213,79,-121,-2,14,-8,-299,-161,102,-12,2,0,121,20,-21,-7,-8,-4,-41,39,-37,12,4,5,21,35,62,0,4,0,-13,-1,-7,3,0,-1,42,-28,44,up
47,-48,140,128,-176,-126,-13,29,-23,-15,-104,18,-11,-7,-13,199,-389,-38,1,27,-47,489,-244,-599,-51,-11,-88,-616,441,549,-15,8,-67,-313,-226,-16,-28,-3,-69,205,528,-295,-20,29,-29,-364,-65,436,-3,-10,-19,121,220,25,-10,31,45,0,-26,206,11,-25,43,213,422,199,26,-21,65,-11,77,-82,42,-13,60,62,204,-226,-2,-2,11,-321,16,208,35,-9,69,-162,-244,-149,0,-9,-8,246,12,-273,0,18,2,-52,-210,180,10,-9,4,123,-66,-150,-2,-1,-17,247,37,21,-2,18,2,-75,-273,95,-10,-8,-17,-40,9,-103,-3,-2,-20,89,-91,55,-13,4,-25,-148,40,26,-1,1,-9,105,-31,-17,-5,-4,-8,-123,184,39,5,-7,10,-102,-44,39,1,9,2,115,35,-56,7,-4,3,-53,12,0,-1,5,-1,-3,-17,-9,1,0,-2,-5,11,35,up
38,-28,149,281,9,198,21,-63,9,193,-511,-304,-28,29,-51,-387,-289,-243,-48,44,-85,-8,130,118,1,26,-24,-52,-85,-73,-20,14,-64,149,514,-31,-4,10,-18,-181,-324,81,-21,-8,-57,218,316,-146,-13,18,-30,-141,14,206,-15,-11,5,-228,205,369,-8,-7,30,55,274,239,30,-4,64,120,-85,-165,17,-29,49,84,226,-94,-2,-24,8,-728,213,274,50,35,65,325,-227,-377,-9,-11,-1,-66,126,-40,3,2,19,226,-415,-331,22,30,0,72,346,266,9,-21,34,436,-375,-256,-3,-19,-29,-376,9,237,-6,15,-29,5,-44,110,-15,11,-24,117,-31,-31,12,-15,-8,-80,1,4,-7,22,-7,-5,-75,2,-16,-9,-11,45,94,-15,12,-8,13,-46,-75,17,-2,8,-3,32,42,-50,1,8,-2,42,3,29,1,-14,4,-45,23,23,4,3,-1,16,11,-20,up
40,-45,143,63,-285,-32,-3,-6,-13,150,-319,-218,-12,43,-48,-196,113,251,-28,4,-48,314,-293,-357,-40,12,-42,34,126,174,1,-7,-68,-384,350,-33,2,26,-39,-67,-284,-105,-45,3,-63,96,523,51,-18,4,12,-209,-104,289,-1,6,10,186,523,70,19,-3,48,38,133,264,43,-39,56,119,39,-144,33,-4,19,-154,-267,-62,-1,-6,38,-193,-82,-14,4,0,22,-212,137,69,18,3,26,81,-235,-172,-4,-11,4,384,182,-70,-3,8,-1,-585,-419,12,-6,13,4,661,408,-13,30,-42,12,-45,-152,-3,0,25,-18,-101,-135,-8,-19,16,-39,-9,-75,-1,-11,4,-21,2,48,124,-3,0,-9,110,-6,-105,-2,-9,4,-66,59,54,3,-1,3,-8,35,-18,2,15,3,-80,-15,19,6,-7,7,47,-30,-39,-8,0,-8,26,74,43,7,-3,11,-38,-130,-32,up
-54,38,-142,-164,-548,-404,-37,13,-18,152,251,102,-18,-12,-24,-43,178,255,-1,-4,19,166,344,134,-3,-6,34,81,263,114,32,-13,52,-14,-23,-44,21,-5,18,47,191,64,41,-17,57,-227,-205,32,5,-2,0,-115,76,-91,16,13,26,-166,-164,35,8,-25,40,150,115,-64,26,-27,12,95,-104,-116,18,22,25,105,-371,-143,-17,0,-22,-43,-79,-29,-18,17,-40,-100,-120,88,-22,15,-39,216,169,70,-3,-23,-6,-74,-80,0,-3,17,-4,48,66,-59,-5,-1,-4,-115,40,58,4,-2,4,60,31,-49,-1,1,-6,-69,51,111,3,-3,7,3,-49,-48,0,3,-2,-52,55,13,2,2,7,15,-58,-6,-1,-3,4,37,95,-22,11,-7,5,-58,-119,-19,-8,7,-11,43,101,28,5,2,4,69,-97,-19,-2,1,-8,-67,43,12,3,-4,2,33,-59,-39,up
-79,30,-138,-149,-759,-337,-34,1,-34,170,285,43,-26,-1,-16,-80,442,260,-10,8,25,-42,312,240,16,-6,37,247,390,3,51,-6,57,-80,-11,159,22,-18,35,150,195,-57,38,-10,42,-386,-97,144,26,-8,25,9,-87,-136,-9,2,28,-43,-244,-118,31,-30,8,365,-36,-162,-1,-18,-5,-88,-134,-93,-18,32,-10,-613,-258,132,-23,14,-23,611,149,-313,11,7,3,-231,24,387,6,-10,8,161,67,-49,9,2,-4,-57,-202,-86,-13,13,-20,185,-34,-7,-1,-12,-11,-109,38,40,-5,14,-14,49,-1,-41,-2,-5,8,-91,10,31,7,6,-3,61,-13,-50,2,-9,6,-27,-10,9,-2,10,-3,-60,-22,21,-3,-8,1,56,38,-19,2,4,-6,-2,-23,29,-1,-2,4,-46,-53,-18,0,-3,-3,7,85,0,-2,6,3,47,-12,-3,2,-2,1,13,40,24,up
47,-70,130,-134,-245,11,0,29,17,65,-327,-166,-4,10,-29,166,-119,-100,-23,19,-49,92,-58,-216,-57,7,-71,-174,-289,169,-38,16,-91,7,337,-50,-9,23,-46,-17,197,-103,-4,19,-40,-197,145,204,3,0,3,199,212,-2,-22,-4,34,-54,196,401,-6,-18,47,100,211,128,40,-32,44,1,97,-13,24,0,29,-44,-60,-48,-4,-10,21,-66,227,-13,35,-3,31,-335,-1,271,7,-1,15,92,-56,-286,11,-5,18,-39,43,-15,24,9,10,277,-192,-271,-24,18,-5,-25,-377,-93,4,-25,-14,263,145,155,13,11,-5,-166,-85,93,-11,3,-16,-104,-118,-112,-2,7,-17,51,102,127,1,-3,4,14,-143,-38,-7,-2,-10,-12,34,-86,-5,5,-7,-28,0,45,-1,-2,-2,74,60,1,2,4,-3,19,13,-3,0,-8,5,-65,26,-17,3,7,-1,37,-25,3,up
