AccX1,AccY1,AccZ1,GyrX1,GyrY1,GyrZ1,AccX2,AccY2,AccZ2,GyrX2,GyrY2,GyrZ2,AccX3,AccY3,AccZ3,GyrX3,GyrY3,GyrZ3,AccX4,AccY4,AccZ4,GyrX4,GyrY4,GyrZ4,AccX5,AccY5,AccZ5,GyrX5,GyrY5,GyrZ5,AccX6,AccY6,AccZ6,GyrX6,GyrY6,GyrZ6,AccX7,AccY7,AccZ7,GyrX7,GyrY7,GyrZ7,AccX8,AccY8,AccZ8,GyrX8,GyrY8,GyrZ8,AccX9,AccY9,AccZ9,GyrX9,GyrY9,GyrZ9,AccX10,AccY10,AccZ10,GyrX10,GyrY10,GyrZ10,AccX11,AccY11,AccZ11,GyrX11,GyrY11,GyrZ11,AccX12,AccY12,AccZ12,GyrX12,GyrY12,GyrZ12,AccX13,AccY13,AccZ13,GyrX13,GyrY13,GyrZ13,AccX14,AccY14,AccZ14,GyrX14,GyrY14,GyrZ14,AccX15,AccY15,AccZ15,GyrX15,GyrY15,GyrZ15,AccX16,AccY16,AccZ16,GyrX16,GyrY16,GyrZ16,AccX17,AccY17,AccZ17,GyrX17,GyrY17,GyrZ17,AccX18,AccY18,AccZ18,GyrX18,GyrY18,GyrZ18,AccX19,AccY19,AccZ19,GyrX19,GyrY19,GyrZ19,AccX20,AccY20,AccZ20,GyrX20,GyrY20,GyrZ20,AccX21,AccY21,AccZ21,GyrX21,GyrY21,GyrZ21,AccX22,AccY22,AccZ22,GyrX22,GyrY22,GyrZ22,AccX23,AccY23,AccZ23,GyrX23,GyrY23,GyrZ23,AccX24,AccY24,AccZ24,GyrX24,GyrY24,GyrZ24,AccX25,AccY25,AccZ25,GyrX25,GyrY25,GyrZ25,AccX26,AccY26,AccZ26,GyrX26,GyrY26,GyrZ26,AccX27,AccY27,AccZ27,GyrX27,GyrY27,GyrZ27,AccX28,AccY28,AccZ28,GyrX28,GyrY28,GyrZ28,AccX29,AccY29,AccZ29,GyrX29,GyrY29,GyrZ29,AccX30,AccY30,AccZ30,GyrX30,GyrY30,GyrZ30,AccX31,AccY31,AccZ31,GyrX31,GyrY31,GyrZ31,AccX32,AccY32,AccZ32,GyrX32,GyrY32,GyrZ32,AccX33,AccY33,AccZ33,GyrX33,GyrY33,GyrZ33,AccX34,AccY34,AccZ34,GyrX34,GyrY34,GyrZ34,AccX35,AccY35,AccZ35,GyrX35,GyrY35,GyrZ35,AccX36,AccY36,AccZ36,GyrX36,GyrY36,GyrZ36,AccX37,AccY37,AccZ37,GyrX37,GyrY37,GyrZ37,AccX38,AccY38,AccZ38,GyrX38,GyrY38,GyrZ38,AccX39,AccY39,AccZ39,GyrX39,GyrY39,GyrZ39,AccX40,AccY40,AccZ40,GyrX40,GyrY40,GyrZ40,Label
49,46,42,40,47,59,43,49,39,34,41,49,43,47,41,42,38,43,43,47,41,31,48,44,43,46,42,45,43,47,42,45,42,44,43,43,43,43,43,46,44,39,43,44,43,43,48,46,43,43,43,55,40,41,43,43,43,42,44,47,43,43,43,44,43,43,43,43,43,47,44,43,43,43,43,43,43,41,43,43,43,42,43,44,43,43,43,41,43,44,43,43,43,45,42,40,43,43,43,42,42,45,43,43,43,44,42,41,43,43,43,43,42,44,43,43,43,44,43,43,43,43,43,41,43,44,43,43,43,43,44,43,43,43,43,44,44,43,43,43,43,44,44,43,43,43,43,44,44,45,43,43,43,44,44,42,43,43,43,42,44,44,43,43,43,43,44,43,43,43,43,42,43,44,43,43,43,43,42,43,43,43,43,43,43,44,43,43,43,44,43,43,43,43,43,43,43,44,43,43,43,44,43,43,43,43,43,43,44,43,43,43,43,44,44,44,43,43,43,43,43,43,43,43,43,44,43,44,43,43,43,43,43,43,43,43,43,43,43,43,left
44,44,39,70,100,52,44,43,42,62,92,50,44,43,43,56,80,49,44,43,43,54,71,48,44,42,44,50,65,48,44,42,45,42,48,45,44,43,45,38,35,44,43,43,44,41,24,41,43,43,44,35,18,43,43,43,43,37,17,42,43,43,43,42,20,42,43,43,43,43,23,41,43,43,43,39,31,43,43,43,43,41,35,44,43,43,43,43,36,42,43,43,42,37,41,44,43,43,42,45,42,41,42,43,42,37,49,47,42,43,42,49,52,43,43,44,42,46,59,50,43,43,43,53,58,39,43,43,43,45,60,52,43,43,43,54,52,43,43,43,43,46,52,48,43,43,43,46,46,45,43,43,43,44,45,44,43,43,43,44,44,44,43,43,43,44,45,44,43,43,43,44,44,44,43,43,43,44,44,44,43,43,43,44,44,45,43,43,43,44,45,44,43,43,43,44,44,45,43,43,43,45,45,45,43,43,43,45,45,44,43,43,43,44,45,44,43,43,43,44,44,45,43,43,43,45,44,44,43,43,43,44,44,44,43,43,43,45,44,45,left
45,45,41,60,67,39,45,45,43,52,71,45,45,44,43,57,71,44,45,44,44,53,72,45,46,44,45,54,69,44,46,44,46,47,58,49,45,44,46,45,49,45,45,44,46,37,35,45,45,45,46,38,23,44,45,45,45,35,15,46,44,45,45,37,17,43,44,45,44,41,17,41,44,45,44,40,23,41,44,44,44,41,28,41,44,44,44,39,35,44,44,45,44,39,37,40,44,45,44,39,42,47,44,45,44,42,49,41,44,45,44,45,53,50,44,45,44,48,57,43,44,45,44,52,60,48,44,45,45,49,59,46,44,45,45,50,55,44,45,44,45,47,51,46,45,44,45,46,46,45,45,44,45,46,45,44,45,45,45,44,44,44,45,45,45,45,44,43,45,45,45,44,45,46,45,45,45,45,44,43,45,45,45,44,45,46,45,45,45,45,45,44,45,45,45,44,45,45,45,45,45,45,44,45,45,45,45,45,44,44,45,45,45,44,45,45,45,45,45,45,44,44,45,45,45,44,45,45,45,45,45,45,45,44,45,45,45,44,44,44,left
44,45,41,56,65,44,45,45,42,60,69,43,45,44,43,58,75,45,45,44,44,54,74,47,45,44,45,53,64,47,46,44,46,46,57,45,45,44,46,41,47,46,45,44,46,38,36,44,45,45,46,37,25,43,45,45,45,38,22,43,45,45,45,38,19,44,45,45,45,40,19,42,44,45,44,42,21,45,44,44,44,42,26,41,44,45,44,40,34,47,44,45,43,42,41,41,44,45,44,46,45,40,44,45,44,39,51,44,44,45,44,43,54,47,44,45,44,43,56,46,44,45,45,49,56,41,44,45,45,44,57,52,44,45,45,51,52,43,45,45,45,48,49,46,45,44,45,47,47,44,45,45,45,46,45,44,45,45,45,44,45,46,45,45,45,46,44,42,45,45,45,43,45,47,45,45,45,46,43,42,45,45,45,44,45,47,45,45,45,46,43,42,45,45,45,43,45,46,45,45,45,45,44,44,45,45,45,44,45,45,45,45,45,45,44,43,45,45,45,44,45,45,45,45,45,45,44,44,45,45,45,44,45,45,45,45,45,45,44,44,left
37,33,35,42,100,44,36,34,35,37,68,38,36,34,35,37,54,36,36,35,36,36,45,34,36,35,36,37,37,38,35,35,35,32,18,33,35,35,35,32,15,34,35,35,35,33,15,31,34,35,35,32,17,35,34,35,34,30,23,33,34,35,34,32,28,34,35,35,34,35,31,31,35,35,34,33,35,34,35,35,34,33,36,36,34,35,34,34,37,36,35,35,34,35,39,34,34,35,34,35,41,36,34,35,35,36,41,38,34,35,35,37,40,34,35,35,35,38,41,36,35,35,35,37,40,34,35,35,35,36,39,36,35,35,35,35,37,35,35,35,35,35,36,34,35,35,35,34,35,35,35,35,35,35,35,34,35,35,35,35,34,34,35,35,35,35,35,35,35,35,35,35,34,35,35,35,35,34,34,35,35,35,35,35,35,35,35,35,35,35,35,35,35,35,35,34,35,35,35,35,35,35,35,34,35,35,35,35,35,35,35,35,35,35,35,34,35,35,35,35,35,35,35,35,35,35,34,34,35,35,35,35,35,35,35,35,35,35,34,34,left
33,30,30,49,100,40,32,30,31,44,65,37,32,30,31,32,48,35,31,30,31,32,38,32,31,30,31,31,32,32,31,31,31,28,14,28,31,31,31,23,12,29,30,31,31,28,12,26,30,31,30,27,17,28,30,31,30,28,21,28,30,31,30,27,24,32,30,31,30,32,27,27,30,31,30,26,30,30,30,31,30,33,31,29,30,31,30,29,34,32,30,31,30,30,35,30,31,31,30,29,36,32,31,31,31,34,37,31,31,31,31,30,37,35,31,31,31,34,36,30,31,31,31,33,35,31,31,31,31,33,34,32,31,31,31,32,32,30,31,31,31,31,32,31,31,31,31,31,31,31,31,31,31,31,31,30,31,31,31,30,30,31,31,31,31,31,30,30,31,31,31,31,30,30,31,31,31,30,31,31,31,31,31,31,30,31,31,31,31,30,31,30,31,31,31,31,30,31,31,31,31,30,31,31,31,31,31,31,30,30,31,31,31,30,31,31,31,31,31,31,31,30,31,31,31,30,31,31,31,31,31,31,30,30,31,31,31,30,31,31,left
33,29,32,48,90,44,32,30,32,34,58,38,32,30,32,32,46,33,31,30,32,33,37,33,31,30,31,31,31,33,31,31,31,27,14,29,31,31,31,28,12,25,30,31,30,29,12,29,30,31,30,27,15,27,30,31,30,29,21,26,30,31,30,30,26,28,30,31,30,28,29,30,30,31,30,30,32,29,30,31,30,28,35,31,30,31,30,31,36,31,30,31,30,28,37,35,30,31,30,34,37,31,30,31,31,31,37,34,30,31,31,33,36,29,31,31,31,31,35,34,31,31,31,34,33,30,31,31,31,31,32,31,31,31,31,31,31,30,31,31,31,31,30,31,31,31,31,31,30,30,31,31,31,30,31,31,31,31,31,31,30,30,31,31,31,30,31,31,31,31,31,31,31,29,31,31,31,30,31,31,31,31,31,31,30,30,31,31,31,30,31,31,31,31,31,31,30,30,31,31,31,30,31,31,31,31,31,30,30,30,31,31,31,30,31,31,31,31,31,31,30,31,31,31,31,31,31,31,31,31,31,31,31,31,31,31,31,31,31,30,left
33,29,31,47,95,45,32,30,31,40,64,37,32,30,31,36,47,35,31,30,31,33,40,34,31,30,31,31,34,35,31,31,31,28,16,27,31,31,31,25,12,28,31,31,31,24,12,27,30,31,30,27,14,26,30,31,30,26,18,27,30,31,30,28,22,28,30,31,30,28,27,29,30,31,30,29,31,29,30,31,30,30,32,34,30,31,30,32,34,28,30,31,30,30,37,34,30,31,30,34,37,33,30,31,31,34,38,30,30,31,31,32,38,32,31,31,31,32,36,32,31,31,31,33,33,31,31,31,31,31,32,31,31,31,31,32,32,30,31,31,31,31,31,31,31,31,31,31,31,30,31,31,31,31,31,30,31,31,31,30,31,30,31,31,31,30,30,30,31,31,31,30,31,31,31,31,31,31,30,30,31,31,31,30,30,31,31,31,31,31,31,31,31,31,31,31,31,30,31,31,31,30,30,31,31,31,31,30,30,31,31,31,31,31,31,31,31,31,31,31,31,30,31,31,31,30,31,31,31,31,31,30,31,30,31,31,31,30,31,31,left
35,33,33,49,88,42,34,33,33,44,63,38,34,32,34,38,50,36,34,33,34,35,42,34,34,33,34,32,35,33,33,33,34,28,17,28,33,33,34,22,12,28,33,33,33,23,10,28,33,33,33,24,13,27,33,33,32,26,16,27,33,33,32,26,24,31,33,33,32,32,29,29,33,33,32,31,32,31,33,33,33,31,34,30,33,33,33,32,35,33,33,33,33,32,35,29,33,33,33,32,36,31,33,33,33,32,36,33,33,33,33,32,35,31,33,33,33,31,35,31,33,33,33,32,34,31,33,33,33,31,32,31,33,33,33,31,32,31,33,33,33,31,31,31,33,33,33,31,31,30,33,33,33,31,30,31,33,33,33,30,30,30,33,33,33,31,30,31,33,33,33,31,31,31,33,33,33,30,31,30,33,33,33,30,31,31,33,33,33,31,31,30,33,33,33,30,31,31,33,33,33,31,30,30,33,33,33,31,31,31,33,33,33,31,30,31,33,33,33,30,31,30,33,33,33,31,31,31,33,33,33,30,31,31,33,33,33,31,31,30,left
34,33,31,57,85,43,34,33,33,50,73,46,34,33,33,48,61,45,34,33,34,46,53,44,34,33,34,42,48,42,33,33,34,39,36,42,33,33,34,40,27,39,33,33,33,34,25,40,33,33,33,36,25,39,33,33,33,40,26,37,33,33,33,37,29,39,33,33,32,43,32,40,33,33,32,39,39,39,33,33,32,41,42,40,33,33,32,39,45,45,33,33,33,43,47,37,33,33,33,37,51,47,33,33,33,46,48,43,33,33,33,43,48,44,33,33,33,44,46,42,33,33,33,43,44,42,33,33,33,43,43,42,33,33,33,42,42,41,33,33,33,42,42,41,33,33,33,42,41,41,33,33,33,41,41,42,33,33,33,41,41,41,33,33,33,41,41,41,33,33,33,42,41,41,33,33,33,41,41,41,33,33,33,41,41,41,33,33,33,41,41,42,33,33,33,41,42,41,33,33,33,41,41,42,33,33,33,41,41,41,33,33,33,41,41,41,33,33,33,41,41,41,33,33,33,41,41,41,33,33,33,41,42,41,33,33,33,41,41,41,left
37,37,34,57,53,40,37,37,35,48,56,43,37,37,36,47,58,43,37,37,36,46,58,45,37,36,37,46,54,44,37,36,37,42,50,45,37,36,38,41,43,41,37,36,38,40,34,42,37,36,38,38,24,39,37,37,37,33,20,38,36,37,37,37,20,36,36,37,36,37,23,36,36,37,36,36,28,38,36,37,35,38,37,41,36,37,36,43,43,38,36,37,36,40,48,43,36,37,36,42,49,43,36,37,36,43,51,43,36,37,37,43,49,44,36,37,37,42,47,43,37,37,37,43,45,43,37,37,37,43,43,42,37,37,37,43,42,41,37,37,37,42,42,41,37,37,37,41,42,41,37,37,37,42,41,41,37,37,37,41,42,41,37,37,37,41,41,41,37,37,37,41,41,42,37,37,37,41,41,41,37,37,37,41,41,41,37,37,37,41,41,41,37,37,37,41,41,41,37,37,37,41,41,41,37,37,37,41,42,41,37,37,37,41,41,41,37,37,37,41,41,42,37,37,37,41,41,41,37,37,37,41,41,41,37,37,37,41,41,42,left
37,34,34,58,100,46,36,34,35,48,65,45,36,34,36,45,53,42,36,35,36,41,45,41,36,35,36,42,39,40,35,35,36,33,22,40,35,35,35,35,21,36,35,35,35,35,23,37,35,35,34,36,26,35,34,35,34,35,32,40,35,35,34,38,38,37,35,35,34,40,42,39,35,35,34,39,45,41,35,35,35,41,47,41,35,35,35,41,47,43,35,35,35,43,46,40,35,35,35,40,44,41,35,35,35,41,42,40,35,35,35,41,41,39,35,35,35,40,40,39,35,35,35,40,40,39,35,35,35,40,40,40,35,35,35,40,40,39,35,35,35,39,40,40,35,35,35,40,39,40,35,35,35,40,40,39,35,35,35,40,39,40,35,35,35,39,40,40,35,35,35,40,40,39,35,35,35,39,40,40,35,35,35,40,40,39,35,35,35,39,40,40,35,35,35,40,40,39,35,35,35,40,40,40,35,35,35,40,39,39,35,35,35,40,40,40,35,35,35,40,40,39,35,35,35,39,40,40,35,35,35,39,39,39,35,35,35,39,40,40,left
35,35,33,51,57,39,35,35,34,48,55,39,35,35,34,45,54,40,35,35,35,43,53,41,35,35,35,43,50,40,35,35,36,40,45,40,35,35,36,38,39,40,35,35,36,38,33,41,35,35,36,35,27,39,35,35,35,35,24,39,35,35,35,36,25,39,35,35,35,36,26,38,35,35,34,36,29,40,35,35,34,39,33,37,35,35,34,39,39,39,35,35,34,38,41,40,35,35,35,40,43,39,35,35,35,39,45,39,35,35,35,40,45,41,35,35,35,40,45,40,35,35,35,42,44,40,35,35,35,41,43,41,35,35,35,42,42,39,35,35,35,40,42,41,35,35,35,41,40,39,35,35,35,40,40,40,35,35,35,40,40,39,35,35,35,40,40,40,35,35,35,40,40,39,35,35,35,40,40,40,35,35,35,40,40,40,35,35,35,40,39,39,35,35,35,39,40,40,35,35,35,40,39,39,35,35,35,39,40,40,35,35,35,40,40,39,35,35,35,39,40,40,35,35,35,40,40,39,35,35,35,39,40,40,35,35,35,40,39,39,left
36,35,33,52,72,39,35,35,34,53,71,40,36,35,35,48,61,43,36,35,35,46,54,43,36,35,35,43,48,42,36,34,36,39,37,40,35,34,36,33,25,41,35,35,36,32,21,37,35,35,35,31,20,37,35,35,35,34,22,34,34,35,34,34,27,35,34,35,34,37,33,36,35,35,34,38,39,39,35,35,34,41,43,39,35,35,34,39,46,42,35,35,35,41,47,42,35,35,35,41,48,42,35,35,35,43,46,42,35,35,35,41,44,41,35,35,35,41,42,40,35,35,35,41,41,40,35,35,35,40,40,39,35,35,35,40,40,39,35,35,35,40,40,39,35,35,35,40,40,39,35,35,35,39,40,39,35,35,35,40,40,40,35,35,35,39,40,40,35,35,35,40,40,39,35,35,35,39,40,40,35,35,35,40,39,39,35,35,35,39,40,40,35,35,35,40,39,39,35,35,35,39,39,40,35,35,35,40,40,39,35,35,35,39,40,40,35,35,35,40,40,39,35,35,35,39,40,40,35,35,35,40,40,39,35,35,35,39,40,40,left
35,35,32,50,55,37,35,35,34,48,56,39,35,35,34,46,55,40,35,35,35,44,53,41,35,35,35,44,51,40,35,34,36,41,47,41,36,34,36,38,40,41,36,35,36,39,33,41,35,35,36,35,25,40,35,35,35,31,20,38,35,35,35,34,20,36,35,35,35,35,24,37,34,35,34,35,28,37,34,35,34,37,35,37,35,35,34,41,42,37,35,35,35,39,44,43,35,35,35,39,45,40,35,35,35,39,47,41,35,35,35,41,47,42,35,35,35,43,46,41,35,35,35,42,44,41,35,35,35,43,42,39,35,35,35,41,42,40,35,35,35,41,40,40,35,35,35,40,40,40,35,35,35,40,40,39,35,35,35,39,39,40,35,35,35,40,39,39,35,35,35,39,40,40,35,35,35,40,39,39,35,35,35,39,39,40,35,35,35,39,40,40,35,35,35,39,39,40,35,35,35,40,40,39,35,35,35,40,40,40,35,35,35,40,40,40,35,35,35,40,39,39,35,35,35,39,40,40,35,35,35,40,39,39,35,35,35,39,40,40,left
37,34,35,58,94,52,36,34,36,49,65,48,36,34,36,40,52,43,35,34,36,39,44,40,35,35,36,41,39,40,35,35,36,34,24,39,35,35,35,34,22,36,35,35,35,39,25,37,35,35,35,38,28,35,35,35,34,37,32,41,35,35,34,38,38,40,35,35,34,40,41,38,35,35,34,38,43,42,35,35,35,41,44,38,35,35,35,40,46,43,35,35,35,43,45,39,35,35,35,40,45,40,35,35,35,41,43,39,35,35,35,40,42,39,35,35,35,40,40,39,35,35,35,40,40,40,35,35,35,40,40,39,35,35,35,40,40,39,35,35,35,40,40,39,35,35,35,39,40,40,35,35,35,40,39,40,35,35,35,39,40,40,35,35,35,40,40,40,35,35,35,39,40,40,35,35,35,40,39,39,35,35,35,40,40,40,35,35,35,40,39,39,35,35,35,39,40,40,35,35,35,40,39,39,35,35,35,39,40,40,35,35,35,40,39,39,35,35,35,39,40,40,35,35,35,39,39,39,35,35,35,39,40,40,35,35,35,40,40,39,left
37,34,35,59,91,44,36,34,35,47,63,43,36,34,35,42,52,41,36,35,35,42,46,40,36,35,36,41,41,41,35,35,35,35,27,40,35,35,35,34,24,38,35,35,35,36,25,36,35,35,35,34,26,39,35,35,34,36,30,38,35,35,34,37,35,39,35,35,34,40,38,39,35,35,35,40,41,40,35,35,35,41,42,40,35,35,35,39,44,41,35,35,35,41,44,40,35,35,35,41,46,39,35,35,35,42,45,40,35,35,35,41,45,40,35,35,35,42,43,40,35,35,35,41,42,40,35,35,35,40,40,40,35,35,35,40,40,40,35,35,35,40,40,40,35,35,35,39,39,39,35,35,35,39,39,39,35,35,35,40,40,39,35,35,35,40,39,39,35,35,35,40,40,40,35,35,35,40,40,39,35,35,35,39,40,39,35,35,35,40,40,40,35,35,35,39,40,40,35,35,35,39,40,40,35,35,35,39,40,40,35,35,35,40,39,39,35,35,35,39,40,40,35,35,35,40,39,40,35,35,35,40,40,40,35,35,35,40,40,39,left
37,34,35,54,95,46,36,34,36,46,63,45,36,34,36,42,53,43,36,35,36,41,45,41,35,35,36,40,42,40,35,35,36,37,27,40,35,35,35,34,25,38,35,35,35,37,25,36,35,35,35,36,28,37,35,35,34,36,30,38,35,35,34,37,35,39,35,35,34,41,38,37,35,35,35,38,41,41,35,35,35,41,42,39,35,35,35,39,44,40,35,35,35,42,43,39,35,35,35,39,45,41,35,35,35,41,43,40,35,35,35,40,43,40,35,35,35,42,42,40,35,35,35,39,42,42,35,35,35,41,40,39,35,35,35,40,41,40,35,35,35,40,40,40,35,35,35,40,40,40,35,35,35,40,40,39,35,35,35,40,40,40,35,35,35,40,40,40,35,35,35,39,40,40,35,35,35,40,39,39,35,35,35,39,40,40,35,35,35,40,39,40,35,35,35,39,40,40,35,35,35,40,39,39,35,35,35,39,40,40,35,35,35,40,40,39,35,35,35,39,40,40,35,35,35,40,40,39,35,35,35,40,40,40,35,35,35,40,39,40,left
35,36,33,54,59,40,35,35,34,45,57,43,35,35,34,44,56,41,35,35,35,44,54,42,35,35,35,44,50,41,35,35,36,40,44,42,35,35,36,40,38,38,35,35,36,39,30,39,35,35,36,33,23,39,35,35,35,34,21,34,35,35,35,36,23,37,35,35,34,34,26,36,35,35,34,35,30,38,35,35,34,39,38,37,35,35,34,39,43,40,35,35,34,39,43,42,35,35,34,40,45,39,35,35,35,41,46,43,35,35,35,42,46,41,35,35,35,42,44,40,35,35,35,41,44,41,35,35,35,42,43,40,35,35,35,41,41,40,35,35,35,40,40,40,35,35,35,40,40,40,35,35,35,40,40,40,35,35,35,40,39,40,35,35,35,40,40,39,35,35,35,39,39,40,35,35,35,39,39,39,35,35,35,40,39,40,35,35,35,39,40,40,35,35,35,40,39,40,35,35,35,40,39,39,35,35,35,40,40,39,35,35,35,39,40,40,35,35,35,40,40,39,35,35,35,40,40,40,35,35,35,40,40,39,35,35,35,40,40,40,left
35,35,33,50,52,38,35,35,34,48,54,40,35,35,34,47,54,41,35,35,35,45,53,42,35,35,35,44,52,41,36,34,36,43,47,42,35,35,36,37,39,42,35,34,36,36,31,39,35,35,36,34,24,38,35,35,35,31,21,37,35,35,35,31,22,37,35,35,34,36,27,34,35,35,34,36,32,38,35,35,34,37,36,38,35,35,34,40,38,37,35,35,34,38,42,41,35,35,34,40,45,41,35,35,35,42,46,42,35,35,35,44,47,39,35,35,35,42,48,43,35,35,35,44,45,40,35,35,35,41,42,41,35,35,35,40,40,39,35,35,35,40,40,40,35,35,35,40,40,39,35,35,35,39,40,40,35,35,35,40,40,39,35,35,35,39,39,40,35,35,35,40,40,40,35,35,35,39,40,39,35,35,35,40,39,40,35,35,35,39,40,40,35,35,35,40,40,39,35,35,35,39,40,40,35,35,35,40,39,39,35,35,35,39,40,40,35,35,35,40,39,39,35,35,35,39,39,40,35,35,35,40,39,40,35,35,35,39,40,40,left
37,38,35,51,52,39,37,38,36,46,53,41,37,37,37,46,51,41,38,37,37,45,53,41,38,37,37,43,51,41,38,37,38,39,48,43,38,37,38,39,43,39,38,37,38,39,39,39,37,37,38,37,28,39,37,37,38,33,24,38,37,37,37,35,22,35,37,37,37,36,23,38,37,37,37,33,26,38,37,37,37,37,33,38,37,37,37,39,37,38,37,37,37,41,40,39,37,37,37,40,41,39,37,37,37,40,44,39,37,37,37,39,45,43,37,37,37,42,45,39,37,37,37,39,45,41,37,37,37,41,45,41,37,37,37,42,43,41,37,37,37,41,42,39,37,37,37,41,41,40,37,37,37,40,41,39,37,37,37,40,40,40,37,37,37,40,39,39,37,37,37,40,40,39,37,37,37,39,39,40,37,37,37,40,39,39,37,37,37,40,40,40,37,37,37,39,40,40,37,37,37,39,40,39,37,37,37,40,40,40,37,37,37,40,39,39,37,37,37,39,40,40,37,37,37,40,39,39,37,37,37,39,40,40,37,37,37,40,39,39,left
39,36,37,57,95,48,38,37,38,50,66,46,38,37,38,44,53,43,38,37,38,42,44,41,38,37,38,40,40,41,37,37,38,34,24,39,37,37,37,32,22,36,37,37,37,36,24,35,37,37,37,34,28,38,37,37,36,37,31,37,37,38,37,39,38,38,37,37,37,41,42,40,37,37,37,38,44,41,37,37,37,41,45,40,37,37,37,41,46,41,37,37,37,42,45,40,37,37,37,41,44,41,37,37,37,42,43,40,37,37,37,40,42,40,37,37,37,40,41,40,37,37,37,40,40,40,37,37,37,40,40,39,37,37,37,39,40,40,37,37,37,40,40,39,37,37,37,39,40,40,37,37,37,40,39,39,37,37,37,39,40,40,37,37,37,40,39,39,37,37,37,39,40,40,37,37,37,40,39,39,37,37,37,39,40,40,37,37,37,40,39,39,37,37,37,39,40,40,37,37,37,40,39,39,37,37,37,39,40,40,37,37,37,40,39,39,37,37,37,39,40,40,37,37,37,40,39,39,37,37,37,40,40,40,37,37,37,39,40,40,left
38,38,35,50,62,41,38,37,36,47,59,43,38,37,37,44,58,42,38,37,38,45,52,43,38,37,38,40,47,41,38,37,38,41,42,41,38,37,39,38,33,38,37,37,38,36,25,39,37,37,37,34,23,37,37,37,37,38,25,35,37,37,37,36,26,36,37,37,36,36,31,37,37,37,37,40,38,38,37,37,37,39,41,41,37,37,37,40,42,39,37,37,37,38,43,41,37,37,37,40,43,40,37,37,37,39,44,41,37,37,37,41,44,39,37,37,37,40,44,42,37,37,37,42,43,39,37,37,37,40,43,41,37,37,37,41,41,40,37,37,37,40,40,40,37,37,37,40,40,40,37,37,37,40,40,39,37,37,37,39,39,40,37,37,37,40,39,39,37,37,37,40,39,40,37,37,37,40,40,40,37,37,37,40,40,40,37,37,37,40,40,40,37,37,37,40,40,40,37,37,37,40,40,39,37,37,37,40,40,40,37,37,37,40,40,39,37,37,37,40,40,40,37,37,37,40,40,40,37,37,37,40,40,40,37,37,37,39,40,40,left
39,36,38,56,92,48,38,37,38,49,64,46,38,37,38,42,52,43,38,37,38,42,45,41,38,37,38,40,41,41,37,37,38,35,26,39,37,37,37,34,25,37,37,37,37,38,26,35,37,37,37,36,28,37,37,37,37,37,31,37,37,38,37,38,36,38,37,37,37,40,38,38,37,38,37,37,41,40,37,37,37,39,42,39,37,37,37,41,43,42,37,37,37,41,44,40,37,37,37,39,44,40,37,37,37,42,42,43,37,37,37,41,43,39,37,37,37,40,43,41,37,37,37,41,42,40,37,37,37,41,42,40,37,37,37,40,41,40,37,37,37,40,40,40,37,37,37,39,40,40,37,37,37,40,39,39,37,37,37,39,39,40,37,37,37,40,39,39,37,37,37,39,40,40,37,37,37,40,40,39,37,37,37,39,40,39,37,37,37,40,40,39,37,37,37,40,40,40,37,37,37,39,39,40,37,37,37,40,40,39,37,37,37,40,40,40,37,37,37,40,40,40,37,37,37,40,40,39,37,37,37,40,40,40,37,37,37,39,40,39,left
37,38,35,47,49,40,37,38,36,47,51,41,37,37,37,44,52,42,38,37,37,44,52,41,38,37,37,45,52,41,38,37,38,44,48,42,38,37,38,38,42,43,38,37,38,39,36,39,37,37,38,37,30,38,37,37,38,32,24,40,37,37,37,31,23,36,37,37,37,36,26,34,37,38,37,34,29,38,37,38,37,37,32,37,37,38,37,40,37,38,37,38,37,40,41,40,37,37,37,40,42,42,37,37,37,41,43,40,37,37,37,41,43,41,37,37,37,40,43,41,37,37,37,41,42,39,37,37,37,40,43,40,37,37,37,41,43,40,37,37,37,41,43,40,37,37,37,40,42,40,37,37,37,41,42,39,37,37,37,40,41,40,37,37,37,40,40,39,37,37,37,39,40,40,37,37,37,40,39,39,37,37,37,39,40,40,37,37,37,40,39,39,37,37,37,39,40,40,37,37,37,40,39,39,37,37,37,40,40,40,37,37,37,40,40,39,37,37,37,39,40,40,37,37,37,40,39,39,37,37,37,39,40,40,37,37,37,40,39,39,left
37,38,35,51,51,39,37,38,36,47,54,42,38,37,37,45,53,42,38,37,37,45,52,42,38,37,37,43,50,41,38,37,38,39,46,43,38,37,38,39,42,40,38,37,38,39,37,40,37,37,38,36,31,40,37,37,38,34,26,36,37,37,37,36,26,34,37,37,37,35,26,39,37,37,37,35,28,36,37,38,37,37,33,37,37,37,37,40,38,39,37,37,37,39,41,40,37,37,37,42,41,39,37,37,37,38,41,41,37,37,37,41,40,39,37,37,37,38,41,42,37,37,37,41,40,38,37,37,37,38,41,42,37,37,37,41,40,39,37,37,37,39,41,41,37,37,37,41,41,39,37,37,37,40,43,40,37,37,37,41,43,40,37,37,37,41,43,40,37,37,37,41,42,40,37,37,37,40,41,40,37,37,37,40,40,40,37,37,37,40,39,39,37,37,37,39,40,40,37,37,37,40,40,39,37,37,37,39,40,40,37,37,37,40,39,39,37,37,37,39,40,40,37,37,37,40,40,39,37,37,37,39,40,40,37,37,37,40,39,39,left
39,37,38,49,77,48,38,37,38,43,57,44,38,37,38,41,48,42,38,37,38,42,44,40,38,37,38,40,40,41,37,37,38,37,29,38,37,37,37,37,28,38,37,37,37,38,29,37,37,37,37,36,30,38,37,37,37,38,33,38,37,37,37,37,36,39,37,37,37,40,38,39,37,37,37,37,38,40,37,37,37,40,40,38,37,37,37,38,41,41,37,37,37,41,42,39,37,37,37,38,43,40,37,37,37,42,44,40,37,37,37,39,43,40,37,37,37,41,43,40,37,37,37,40,43,41,37,37,37,42,43,39,37,37,37,40,42,40,37,37,37,40,41,40,37,37,37,40,40,39,37,37,37,40,40,40,37,37,37,40,39,39,37,37,37,40,40,39,37,37,37,40,40,40,37,37,37,40,39,39,37,37,37,40,40,39,37,37,37,40,40,40,37,37,37,39,40,40,37,37,37,40,40,39,37,37,37,40,40,39,37,37,37,40,40,40,37,37,37,40,40,39,37,37,37,40,40,40,37,37,37,39,40,40,37,37,37,40,40,40,left
39,37,38,56,87,51,38,37,38,44,60,45,38,37,38,41,53,42,38,37,38,41,49,41,38,37,38,40,45,43,37,37,38,39,31,38,37,37,38,36,27,36,37,37,37,36,25,38,37,37,37,37,26,38,37,37,37,37,28,36,37,37,37,35,32,39,37,37,37,40,37,38,37,37,37,41,40,39,37,37,37,40,40,40,37,37,37,40,40,39,37,37,37,40,42,40,37,37,37,41,42,39,37,37,37,40,43,40,37,37,37,41,44,40,37,37,37,40,44,42,37,37,37,41,44,39,37,37,37,40,44,42,37,37,37,41,42,39,37,37,37,40,41,41,37,37,37,40,40,39,37,37,37,39,40,40,37,37,37,40,39,39,37,37,37,39,40,40,37,37,37,40,39,39,37,37,37,40,39,40,37,37,37,40,39,40,37,37,37,39,40,39,37,37,37,39,39,40,37,37,37,40,39,39,37,37,37,39,40,39,37,37,37,40,39,40,37,37,37,39,40,40,37,37,37,40,40,39,37,37,37,39,40,40,37,37,37,40,39,39,left
39,37,38,50,85,50,38,37,38,46,61,47,38,37,38,41,52,44,38,37,38,42,44,41,38,37,38,41,39,41,37,37,38,36,27,38,37,37,37,36,26,37,37,37,37,37,27,35,37,37,37,36,29,36,37,37,37,36,32,38,37,37,37,40,36,37,37,37,37,38,39,40,37,37,37,42,40,38,37,37,37,38,42,41,37,37,37,42,43,39,37,37,37,38,44,43,37,37,37,42,44,39,37,37,37,38,44,43,37,37,37,43,43,39,37,37,37,39,43,43,37,37,37,42,42,38,37,37,37,39,42,41,37,37,37,41,40,40,37,37,37,39,40,40,37,37,37,40,40,39,37,37,37,39,40,40,37,37,37,40,39,39,37,37,37,39,40,40,37,37,37,40,39,39,37,37,37,39,40,40,37,37,37,40,39,39,37,37,37,39,40,40,37,37,37,40,39,39,37,37,37,39,40,40,37,37,37,40,40,39,37,37,37,39,40,40,37,37,37,40,39,39,37,37,37,39,40,39,37,37,37,40,40,40,37,37,37,39,40,40,left
39,37,38,54,92,52,38,37,38,48,64,45,38,37,38,46,53,44,38,37,38,40,44,43,38,37,38,40,40,43,37,37,38,36,25,37,37,37,37,33,24,36,37,37,37,34,26,37,37,37,37,37,30,34,37,38,37,37,33,38,37,37,37,39,37,38,37,38,37,40,40,39,37,37,37,40,40,41,37,37,37,39,41,40,37,37,37,41,42,41,37,37,37,39,43,41,37,37,37,42,42,39,37,37,37,39,43,41,37,37,37,43,44,39,37,37,37,40,43,41,37,37,37,42,43,39,37,37,37,40,42,40,37,37,37,40,41,40,37,37,37,40,40,40,37,37,37,40,40,39,37,37,37,40,40,40,37,37,37,39,40,40,37,37,37,40,39,39,37,37,37,39,39,40,37,37,37,39,39,40,37,37,37,40,40,40,37,37,37,39,40,40,37,37,37,39,39,39,37,37,37,40,40,40,37,37,37,40,39,39,37,37,37,40,40,40,37,37,37,40,40,39,37,37,37,40,40,40,37,37,37,40,39,40,37,37,37,40,40,39,left
