AccX1,AccY1,AccZ1,GyrX1,GyrY1,GyrZ1,AccX2,AccY2,AccZ2,GyrX2,GyrY2,GyrZ2,AccX3,AccY3,AccZ3,GyrX3,GyrY3,GyrZ3,AccX4,AccY4,AccZ4,GyrX4,GyrY4,GyrZ4,AccX5,AccY5,AccZ5,GyrX5,GyrY5,GyrZ5,AccX6,AccY6,AccZ6,GyrX6,GyrY6,GyrZ6,AccX7,AccY7,AccZ7,GyrX7,GyrY7,GyrZ7,AccX8,AccY8,AccZ8,GyrX8,GyrY8,GyrZ8,AccX9,AccY9,AccZ9,GyrX9,GyrY9,GyrZ9,AccX10,AccY10,AccZ10,GyrX10,GyrY10,GyrZ10,AccX11,AccY11,AccZ11,GyrX11,GyrY11,GyrZ11,AccX12,AccY12,AccZ12,GyrX12,GyrY12,GyrZ12,AccX13,AccY13,AccZ13,GyrX13,GyrY13,GyrZ13,AccX14,AccY14,AccZ14,GyrX14,GyrY14,GyrZ14,AccX15,AccY15,AccZ15,GyrX15,GyrY15,GyrZ15,AccX16,AccY16,AccZ16,GyrX16,GyrY16,GyrZ16,AccX17,AccY17,AccZ17,GyrX17,GyrY17,GyrZ17,AccX18,AccY18,AccZ18,GyrX18,GyrY18,GyrZ18,AccX19,AccY19,AccZ19,GyrX19,GyrY19,GyrZ19,AccX20,AccY20,AccZ20,GyrX20,GyrY20,GyrZ20,AccX21,AccY21,AccZ21,GyrX21,GyrY21,GyrZ21,AccX22,AccY22,AccZ22,GyrX22,GyrY22,GyrZ22,AccX23,AccY23,AccZ23,GyrX23,GyrY23,GyrZ23,AccX24,AccY24,AccZ24,GyrX24,GyrY24,GyrZ24,AccX25,AccY25,AccZ25,GyrX25,GyrY25,GyrZ25,AccX26,AccY26,AccZ26,GyrX26,GyrY26,GyrZ26,AccX27,AccY27,AccZ27,GyrX27,GyrY27,GyrZ27,AccX28,AccY28,AccZ28,GyrX28,GyrY28,GyrZ28,AccX29,AccY29,AccZ29,GyrX29,GyrY29,GyrZ29,AccX30,AccY30,AccZ30,GyrX30,GyrY30,GyrZ30,Label
47,49,44,64,62,42,48,49,46,49,81,55,48,48,47,53,76,53,48,48,48,51,76,55,48,48,48,53,68,48,49,47,49,48,65,57,48,47,50,48,45,47,48,48,50,46,34,47,48,48,49,46,23,42,48,48,49,41,18,43,48,48,48,45,16,42,48,48,47,46,22,40,48,48,47,44,28,46,48,48,47,44,34,46,47,48,47,47,44,46,47,48,47,46,52,47,47,48,47,49,60,49,47,48,48,50,65,50,47,48,48,50,64,52,48,48,48,51,62,47,48,48,49,49,57,54,48,48,48,49,51,49,48,48,48,48,49,50,48,48,48,49,49,47,48,48,48,48,48,49,48,48,48,48,47,47,48,48,48,47,48,47,48,48,48,48,48,48,48,48,48,48,48,48,48,48,48,48,48,48,left
47,46,43,49,100,52,46,45,44,49,83,50,47,45,45,48,76,48,46,45,46,45,60,48,46,45,46,44,52,46,46,45,47,42,31,39,45,45,47,36,18,37,45,45,46,35,10,37,45,45,45,36,12,36,45,45,45,33,16,31,45,45,44,35,25,38,45,46,44,40,33,37,45,46,44,41,40,40,45,46,44,40,48,42,45,45,45,46,53,45,45,45,45,44,56,42,45,45,45,44,56,46,45,45,46,43,53,43,45,45,46,44,47,43,45,45,46,41,43,42,45,45,46,41,41,40,45,45,45,41,40,41,45,45,45,41,40,40,45,45,45,41,41,41,45,45,45,41,41,41,45,45,45,41,41,41,45,45,45,41,41,41,45,45,45,41,41,41,45,45,45,41,41,41,45,45,45,41,41,41,left
46,45,42,54,96,48,47,45,44,50,86,48,46,45,46,47,71,49,46,45,46,47,58,46,46,45,46,42,49,44,46,45,47,43,36,40,45,45,47,39,21,42,45,45,46,35,15,36,45,45,45,37,18,34,45,45,45,38,23,34,45,45,45,35,24,38,45,46,44,39,34,37,45,46,45,41,41,40,45,45,45,40,45,44,45,45,45,42,46,42,45,45,45,41,49,43,45,45,45,42,48,46,45,45,45,43,48,42,45,45,45,44,47,44,45,45,45,42,47,41,45,45,45,44,46,42,45,45,45,42,46,44,45,45,45,43,43,41,45,45,45,41,43,43,45,45,45,42,42,40,45,45,45,41,42,43,45,45,45,42,41,40,45,45,45,41,41,42,45,45,45,41,41,40,45,45,45,41,42,42,left
45,46,42,51,56,38,45,46,44,43,62,45,46,45,44,46,61,44,46,45,45,44,62,46,46,45,45,45,56,42,46,45,46,44,52,47,46,45,46,43,43,42,46,45,47,43,35,43,45,45,46,39,23,37,45,45,46,35,20,35,45,45,45,35,18,37,45,45,45,37,21,35,45,45,44,36,26,36,45,46,44,38,34,38,45,45,45,43,40,42,45,45,45,41,44,44,45,45,45,42,46,44,45,45,45,42,46,43,45,45,45,44,45,44,45,45,45,42,45,42,45,45,45,42,45,42,45,45,45,43,45,41,45,45,45,42,46,42,45,45,45,42,47,42,45,45,45,42,46,43,45,45,45,43,45,42,45,45,45,41,44,42,45,45,45,42,42,42,45,45,45,41,41,41,45,45,45,42,41,41,left
48,44,47,50,99,57,46,45,47,47,66,49,46,45,47,46,47,44,46,45,46,40,36,40,46,45,46,39,35,42,45,45,45,37,21,38,45,45,45,37,22,37,45,45,44,36,28,36,45,46,45,40,35,39,45,45,45,42,39,44,45,45,45,42,42,41,45,45,45,41,44,43,45,45,45,44,46,41,45,45,45,42,47,45,45,45,45,44,48,41,45,45,45,42,49,43,45,45,45,43,49,42,45,45,45,41,47,43,45,45,45,43,45,42,45,45,45,41,44,43,45,45,45,42,42,41,45,45,45,41,41,41,45,45,45,42,41,41,45,45,45,41,41,41,45,45,45,42,41,41,45,45,45,41,41,42,45,45,45,42,41,41,45,45,45,41,41,42,45,45,45,42,41,41,45,45,45,41,42,42,left
47,44,47,50,91,51,46,45,47,49,66,46,46,45,47,47,49,42,46,45,46,39,39,40,46,45,46,41,37,43,45,45,45,39,26,40,45,45,45,37,26,38,45,45,45,37,29,38,45,45,45,43,35,42,45,45,45,40,37,39,45,45,45,42,38,41,45,45,45,39,39,40,45,45,45,41,41,42,45,45,45,40,42,42,45,45,45,42,44,40,45,45,45,40,46,44,45,45,45,43,47,42,45,45,45,42,46,41,45,45,45,42,47,43,45,45,45,43,46,42,45,45,45,42,45,43,45,45,45,43,44,42,45,45,45,42,44,42,45,45,45,42,42,42,45,45,45,41,42,42,45,45,45,42,41,41,45,45,45,41,41,41,45,45,45,41,41,42,45,45,45,41,42,41,45,45,45,41,41,41,left
47,44,47,53,87,48,46,45,46,48,62,43,46,45,46,48,44,40,46,45,46,39,39,41,46,45,46,40,39,44,45,45,45,38,28,40,45,45,45,38,28,38,45,45,45,37,33,40,45,45,45,43,36,41,45,45,45,41,36,38,45,45,45,40,37,40,45,45,45,41,39,39,45,45,45,39,41,42,45,45,45,41,42,41,45,45,45,40,44,43,45,45,45,43,45,43,45,45,45,40,46,43,45,45,45,44,46,42,45,45,45,43,45,43,45,45,45,43,45,42,45,45,45,42,45,42,45,45,45,43,45,43,45,45,45,42,44,41,45,45,45,42,44,43,45,45,45,42,43,41,45,45,45,42,42,42,45,45,45,41,41,41,45,45,45,42,41,40,45,45,45,41,41,42,45,45,45,42,41,41,left
44,41,43,56,100,54,43,41,43,43,60,44,42,41,42,40,49,39,42,41,43,42,43,37,42,42,42,36,37,41,42,42,42,35,22,35,42,42,42,34,24,35,42,42,42,36,25,34,42,42,41,33,26,37,42,42,41,38,31,35,42,42,41,36,33,39,42,42,41,37,35,35,42,42,41,36,36,37,42,42,41,36,39,40,42,42,41,39,40,38,42,42,42,39,42,41,42,42,42,42,42,37,42,42,42,39,44,41,42,42,42,41,42,38,42,42,42,39,41,39,42,42,42,39,42,38,42,42,42,38,42,38,42,42,42,38,41,39,42,42,42,39,40,37,42,42,42,37,40,39,42,42,42,39,38,37,42,42,42,37,38,39,42,42,42,38,37,37,42,42,42,38,38,38,42,42,42,38,38,38,left
44,41,43,44,85,51,43,41,43,43,59,41,43,41,43,43,49,40,42,42,43,38,39,38,42,42,42,38,36,41,42,42,42,35,23,34,42,42,42,35,24,37,42,42,41,34,24,35,42,42,41,37,29,36,42,42,41,36,32,37,42,42,41,39,35,36,42,42,41,37,35,36,42,42,41,38,37,36,42,42,41,36,40,38,42,42,41,39,41,37,42,42,41,37,43,40,42,42,42,39,44,39,42,42,42,38,44,41,42,42,42,41,43,39,42,42,42,39,42,40,42,42,42,39,41,39,42,42,42,38,40,39,42,42,42,39,40,37,42,42,42,38,39,38,42,42,42,38,39,38,42,42,42,38,38,38,42,42,42,38,38,38,42,42,42,38,38,38,42,42,42,37,38,38,42,42,42,38,38,38,left
43,40,43,41,72,41,43,41,43,40,50,38,42,42,43,39,41,37,42,42,42,36,36,38,42,42,42,37,34,40,42,42,42,35,26,37,42,42,41,36,28,36,42,42,41,36,30,39,42,42,41,39,33,37,42,42,42,38,36,37,42,42,42,40,36,33,42,42,42,35,38,38,42,42,42,38,38,37,42,42,42,36,39,41,42,42,42,38,39,34,42,42,41,36,41,43,42,42,42,41,41,38,42,42,42,39,42,40,42,42,42,40,41,38,42,42,42,39,41,39,42,42,42,39,41,38,42,42,42,39,41,39,42,42,42,38,40,39,42,42,42,39,40,38,42,42,42,38,39,39,42,42,42,39,39,37,42,42,42,38,38,38,42,42,42,38,38,37,42,42,42,38,38,38,42,42,42,38,38,38,left
44,40,43,43,81,49,43,41,44,52,59,43,43,42,43,38,39,40,42,42,42,40,38,41,42,42,42,40,38,44,42,42,42,39,30,40,41,42,41,37,29,38,41,42,41,41,36,41,42,42,42,42,37,39,42,42,42,40,38,42,42,42,41,42,38,37,42,42,41,38,40,43,42,42,41,42,42,40,42,42,42,39,43,44,42,42,42,43,43,40,42,42,42,40,44,45,42,42,42,44,44,41,42,42,42,41,44,43,42,42,42,43,45,41,42,42,42,41,45,42,42,42,42,43,45,41,42,42,42,41,45,42,42,42,42,43,44,42,42,42,42,41,43,42,42,42,42,42,42,42,42,42,42,41,42,42,42,42,42,42,41,41,42,42,42,41,41,42,42,42,42,42,41,41,42,42,42,41,41,41,left
43,41,44,48,79,50,43,41,43,45,58,44,42,41,43,44,48,41,42,42,42,42,42,41,42,42,42,40,39,44,42,42,42,39,30,39,42,42,42,38,30,39,42,42,42,39,31,39,42,42,41,39,34,40,42,42,41,42,36,39,42,42,41,39,38,41,42,42,41,44,40,38,42,42,41,39,42,42,42,42,42,42,43,40,42,42,42,39,43,44,42,42,42,45,43,39,42,42,42,39,44,45,42,42,42,45,43,40,42,42,42,41,45,45,42,42,42,45,46,40,42,42,42,41,46,43,42,42,42,43,46,41,42,42,42,40,45,42,42,42,42,42,44,41,42,42,42,41,42,41,42,42,42,41,42,42,42,42,42,42,41,41,42,42,42,41,41,42,42,42,42,42,41,40,42,42,42,41,41,42,left
42,43,39,55,58,43,42,42,40,42,61,46,42,42,41,45,58,44,42,42,41,46,59,45,42,42,42,46,56,44,42,41,43,41,50,46,42,41,43,46,43,40,42,41,43,43,33,40,42,41,43,35,23,39,42,42,42,35,21,37,41,42,42,36,23,38,41,42,41,35,26,38,41,42,41,37,33,38,42,42,41,43,39,40,42,42,42,43,41,42,42,42,42,42,41,41,42,42,42,42,42,41,42,42,41,40,43,42,42,42,42,43,44,42,42,42,42,40,44,43,42,42,42,43,44,41,42,42,42,41,45,43,42,42,42,43,43,40,42,42,42,41,44,42,42,42,42,43,43,42,42,42,42,42,43,42,42,42,42,41,43,41,42,42,42,42,43,42,42,42,42,41,43,42,42,42,42,42,43,41,left
42,42,39,56,76,50,42,42,41,45,69,50,43,41,42,47,65,47,42,41,42,46,59,47,42,41,42,43,53,46,42,41,43,41,41,43,42,41,43,43,30,36,42,42,42,35,22,37,41,42,42,37,20,38,41,42,41,37,22,35,41,42,41,38,27,36,41,42,41,37,33,39,42,42,41,43,38,39,42,42,41,41,41,45,42,42,41,42,42,40,42,42,41,41,43,43,42,42,42,42,44,43,42,42,42,43,44,41,42,42,42,41,45,44,42,42,42,43,45,40,42,42,42,41,45,43,42,42,42,43,46,40,42,42,42,41,47,44,42,42,42,43,45,42,42,42,42,41,44,43,42,42,42,42,44,42,42,42,42,41,42,42,42,42,42,41,41,42,42,42,42,41,41,41,42,42,42,41,41,41,left
44,41,44,53,97,59,43,41,43,41,60,46,42,41,43,45,50,42,42,41,43,43,45,41,42,42,42,42,40,45,42,42,42,38,26,37,42,42,42,40,29,38,42,42,42,40,30,40,42,42,41,38,31,39,42,42,41,41,35,40,42,42,41,40,37,43,42,42,41,45,38,38,42,42,41,37,41,43,42,42,42,43,42,40,42,42,42,40,43,44,42,42,42,43,45,39,42,42,42,38,45,45,42,42,42,44,45,41,42,42,42,41,44,41,42,42,42,41,45,42,42,42,42,42,44,40,42,42,42,41,45,43,42,42,42,43,44,40,42,42,42,41,44,44,42,42,42,43,43,41,42,42,42,41,43,43,42,42,42,42,41,41,42,42,42,41,41,42,42,42,42,42,41,41,42,42,42,42,41,41,left
41,38,40,46,100,54,40,38,40,40,60,45,40,38,40,39,48,41,39,38,40,40,39,38,39,39,39,37,34,41,39,39,39,35,20,34,38,39,39,35,23,35,38,39,38,38,25,33,38,39,38,34,30,36,39,39,38,40,35,37,39,39,38,38,38,41,39,39,38,40,40,37,39,39,38,37,42,40,39,39,39,41,43,38,39,39,39,36,43,40,39,39,39,40,43,39,39,39,39,38,42,38,39,39,39,39,42,39,39,39,39,39,40,38,39,39,39,39,41,40,39,39,39,39,40,38,39,39,39,38,39,38,39,39,39,38,39,39,39,39,39,39,39,38,39,39,39,38,38,38,39,39,39,39,38,38,39,39,39,38,38,39,39,39,39,38,38,38,39,39,39,38,38,39,39,39,39,39,38,38,left
40,38,41,45,67,39,39,38,40,44,44,38,39,39,39,36,36,37,39,39,39,36,34,38,39,39,39,38,35,39,39,39,39,36,28,38,39,39,38,36,31,37,39,39,38,38,35,39,39,39,39,40,37,38,39,39,39,38,36,38,39,39,39,39,38,38,39,39,39,37,38,40,39,39,39,39,38,37,39,39,39,37,40,39,39,39,39,39,40,37,39,39,39,38,40,39,39,39,39,39,40,37,39,39,39,38,40,39,39,39,39,39,39,37,39,39,39,37,40,39,39,39,39,38,40,39,39,39,39,38,41,38,39,39,39,38,41,39,39,39,39,39,41,38,39,39,39,39,40,39,39,39,39,39,39,38,39,39,39,38,39,38,39,39,39,39,38,38,39,39,39,38,39,39,39,39,39,39,38,38,left
48,45,46,46,94,55,47,45,47,51,67,49,47,46,48,56,55,48,46,46,47,42,43,45,46,46,46,44,42,48,46,46,46,44,32,44,46,46,46,43,34,46,46,46,45,39,35,41,46,46,45,48,43,45,46,46,46,48,44,45,46,46,46,46,45,46,46,46,46,46,46,45,46,46,46,45,48,47,46,46,46,47,48,46,46,46,46,44,49,48,46,46,46,47,49,46,46,46,46,45,49,48,46,46,46,47,48,44,46,46,46,45,49,48,46,46,46,48,48,45,46,46,46,46,48,47,46,46,46,47,47,46,46,46,46,46,47,47,46,46,46,46,47,46,46,46,46,46,46,46,46,46,46,46,46,46,46,46,46,46,46,46,46,46,46,46,46,46,46,46,46,46,46,46,46,46,46,46,46,46,left
48,45,47,54,85,54,47,45,47,54,64,49,47,46,47,51,52,47,46,46,47,45,44,45,46,46,46,45,43,48,46,46,46,43,35,44,46,46,46,42,35,45,46,46,45,42,38,43,46,46,46,46,43,46,46,46,46,46,44,44,46,46,46,47,44,46,46,46,46,45,45,45,46,46,46,46,46,46,46,46,46,45,47,47,46,46,46,46,47,46,46,46,46,46,48,47,46,46,46,47,48,46,46,46,46,46,48,47,46,46,46,47,48,46,46,46,46,47,49,46,46,46,46,46,48,46,46,46,46,46,48,46,46,46,46,46,48,46,46,46,46,46,47,46,46,46,46,46,47,46,46,46,46,46,46,46,46,46,46,46,46,46,46,46,46,46,46,46,46,46,46,46,46,46,46,46,46,46,46,46,left
46,46,44,52,63,49,46,46,45,48,61,49,46,46,45,49,60,48,46,46,46,49,60,48,46,46,46,48,56,48,46,46,47,47,51,48,46,46,47,46,46,46,46,46,47,49,41,46,46,46,47,41,33,43,46,46,46,42,32,42,46,46,46,42,33,44,46,46,46,44,35,43,46,46,45,40,37,42,46,46,45,47,42,45,46,46,46,45,44,46,46,46,46,47,45,46,46,46,46,45,46,45,46,46,46,47,47,46,46,46,46,46,49,48,46,46,46,47,50,46,46,46,46,46,50,48,46,46,46,47,50,46,46,46,46,46,50,47,46,46,46,47,49,47,46,46,46,46,48,46,46,46,46,46,47,46,46,46,46,46,47,46,46,46,46,46,47,46,46,46,46,46,46,46,46,46,46,46,46,46,left
46,46,44,49,59,48,46,46,45,50,60,48,46,46,45,48,61,49,46,46,46,48,61,48,46,46,46,50,59,49,46,46,47,46,51,48,46,46,47,47,47,47,46,46,47,45,37,43,46,46,47,43,31,44,46,46,46,40,29,44,46,46,46,45,35,43,46,46,46,42,34,43,46,46,45,46,39,44,46,46,46,45,42,46,46,46,46,47,42,45,46,46,46,44,43,45,46,46,45,47,46,45,46,46,46,45,49,45,46,46,46,47,51,48,46,46,46,46,52,46,46,46,46,48,51,49,46,46,46,46,50,46,46,46,46,47,49,47,46,46,46,46,48,47,46,46,46,47,47,46,46,46,46,46,47,46,46,46,46,46,47,47,46,46,46,46,46,46,46,46,46,46,46,46,46,46,46,46,46,46,left
49,49,47,53,60,46,49,49,48,47,61,47,49,49,48,49,61,49,49,49,49,47,61,50,49,49,49,48,60,49,50,49,50,46,52,49,50,49,50,51,47,47,49,49,50,42,33,43,49,49,50,42,26,41,49,49,49,41,25,44,49,49,49,44,30,41,48,49,48,39,32,38,49,49,48,47,42,46,49,49,49,48,46,48,49,49,49,46,47,45,49,49,49,46,49,47,49,49,49,46,51,47,49,49,49,47,52,49,49,49,49,47,52,46,49,49,49,47,51,47,49,49,49,47,50,47,49,49,49,47,48,46,49,49,49,46,48,46,49,49,49,46,47,47,49,49,49,47,46,46,49,49,49,46,46,46,49,49,49,46,45,45,49,49,49,46,46,47,49,49,49,46,46,46,49,49,49,46,46,46,left
49,50,47,64,73,63,49,49,48,64,73,64,49,49,49,68,74,65,50,49,49,64,73,64,49,49,49,63,68,63,49,49,50,63,65,62,49,48,50,70,60,62,49,49,50,55,54,60,49,49,49,56,51,60,49,49,49,59,53,59,49,49,49,59,55,62,49,49,48,52,57,60,49,49,48,64,60,62,49,49,49,65,61,61,49,49,49,62,60,63,49,49,49,62,60,61,49,49,49,61,61,62,49,49,49,63,63,61,49,49,49,62,64,63,49,49,49,64,65,62,49,49,49,63,65,63,49,49,49,63,65,62,49,49,49,62,64,63,49,49,49,62,63,62,49,49,49,62,62,62,49,49,49,62,62,61,49,49,49,62,62,62,49,49,49,62,62,61,49,49,49,62,62,62,49,49,49,62,62,61,left
51,48,50,66,91,67,50,48,50,67,78,62,50,49,50,62,66,61,50,49,50,60,60,61,49,49,49,61,58,64,49,49,49,61,52,61,49,49,49,59,51,61,49,49,49,62,55,61,49,49,49,62,59,62,49,49,49,62,61,61,49,49,49,62,62,61,49,49,49,62,63,60,49,49,49,61,64,63,49,49,49,61,65,62,49,49,49,62,65,63,49,49,49,62,65,63,49,49,49,63,65,62,49,49,49,62,64,64,49,49,49,63,63,62,49,49,49,62,63,63,49,49,49,63,63,62,49,49,49,61,62,62,49,49,49,63,62,61,49,49,49,62,62,62,49,49,49,63,61,61,49,49,49,61,61,62,49,49,49,63,62,61,49,49,49,61,62,63,49,49,49,62,62,61,49,49,49,62,62,62,left
50,51,48,69,69,61,51,51,49,62,72,64,51,50,50,64,71,64,51,50,50,63,70,63,51,50,51,65,72,62,51,50,51,62,66,65,51,50,51,65,63,61,51,50,51,59,55,60,51,50,51,60,52,60,50,51,51,58,48,63,50,51,50,59,52,59,50,51,50,58,52,59,50,50,50,62,58,62,50,51,50,63,60,61,50,51,50,62,61,61,50,51,50,61,61,61,50,51,50,62,64,62,50,51,50,63,66,62,50,51,50,62,67,63,50,51,50,63,68,65,50,50,51,64,67,63,50,50,51,63,65,63,51,50,51,62,63,63,50,50,51,62,61,62,50,50,50,62,61,61,50,51,50,61,61,61,50,51,50,62,61,62,51,50,50,61,62,62,50,51,50,62,62,61,50,50,51,62,62,62,left
50,51,48,69,69,61,51,51,49,62,73,65,51,50,50,66,73,64,51,50,50,64,74,64,51,50,51,63,68,62,51,50,51,62,65,63,51,50,52,64,57,59,51,50,51,57,53,61,50,51,51,59,48,62,50,51,50,59,51,58,50,51,50,60,53,59,50,50,50,59,58,63,50,51,50,64,61,60,50,51,50,62,63,63,50,51,50,63,63,61,50,51,50,61,65,62,50,51,50,63,65,63,50,51,50,61,65,62,50,51,50,63,65,62,50,50,51,62,64,63,50,50,51,62,63,61,50,50,51,62,63,63,50,50,51,63,62,62,51,50,51,62,63,62,50,50,51,62,62,62,50,51,50,62,62,62,51,50,51,62,62,62,50,50,50,62,62,62,50,51,50,62,61,61,51,51,50,62,62,62,left
50,51,48,68,65,60,50,51,49,66,72,63,51,50,50,65,74,64,51,50,50,65,73,64,51,50,51,64,70,63,51,50,51,63,67,64,51,50,52,65,59,61,51,50,51,58,53,61,50,50,51,58,49,60,50,50,51,58,50,59,50,51,50,58,52,58,50,51,50,57,56,60,50,51,50,63,59,61,50,51,50,62,61,61,50,51,50,64,62,63,50,51,50,61,63,61,50,51,50,63,64,63,50,51,50,62,65,62,50,50,50,64,65,63,50,51,50,61,65,63,50,50,51,64,64,61,50,50,51,61,64,63,51,50,51,63,63,61,50,51,51,61,63,63,51,50,51,63,63,62,51,51,51,62,62,62,51,50,50,62,62,62,50,50,51,61,62,63,50,50,50,62,62,61,50,51,50,62,62,62,left
52,50,51,70,95,70,51,50,51,66,78,66,51,50,51,66,69,63,51,50,51,65,63,62,51,50,51,60,60,63,50,50,51,59,52,60,50,51,50,59,52,60,50,51,50,59,53,60,50,51,50,58,56,60,50,51,50,63,60,61,50,51,50,61,61,62,50,51,50,63,62,62,50,51,50,61,64,61,50,51,50,63,65,63,50,51,50,62,65,63,50,51,50,64,65,63,50,51,50,62,65,63,50,50,51,63,64,62,50,50,51,62,64,62,51,50,51,62,63,62,51,50,51,62,62,63,51,50,51,62,62,61,50,50,51,62,62,62,50,50,50,62,62,62,50,50,50,62,62,62,50,50,50,62,62,62,50,51,50,61,62,62,50,50,50,62,62,62,50,50,50,62,62,62,50,50,51,62,62,61,left
50,51,49,65,67,61,51,51,49,64,69,63,51,51,50,63,71,63,51,50,50,64,71,63,51,50,51,64,71,63,51,50,51,64,68,64,51,50,52,63,63,63,51,50,52,62,57,60,50,50,51,59,51,60,50,50,51,57,48,61,50,51,50,60,51,59,50,51,50,58,53,59,50,51,50,61,56,60,50,51,50,61,61,64,50,51,50,65,62,61,50,51,50,61,63,62,50,50,50,63,64,62,50,51,50,61,65,63,50,50,50,63,65,63,50,51,50,62,66,61,50,51,51,62,65,64,50,51,51,63,65,61,51,50,51,63,64,63,51,50,51,62,62,62,51,50,51,61,62,63,50,50,50,62,62,62,50,50,51,62,62,62,50,50,51,62,62,62,50,50,50,62,62,62,50,50,50,62,62,62,left
50,51,48,68,70,63,51,51,49,63,72,64,51,50,50,64,72,64,51,50,50,64,72,63,51,50,51,65,69,63,51,50,51,61,66,64,51,50,51,65,62,62,51,50,52,60,55,60,50,50,51,58,51,61,50,50,51,57,50,60,50,50,50,59,52,62,50,51,50,57,53,57,50,51,50,62,57,60,50,51,50,62,60,61,50,51,50,62,62,62,50,51,50,62,62,61,50,51,50,62,64,62,50,51,50,62,65,64,50,51,50,63,65,62,50,51,50,63,66,63,50,50,50,63,65,63,50,50,51,63,65,62,50,50,51,62,64,62,51,50,51,62,63,62,51,50,51,62,62,62,51,50,51,62,62,62,51,50,51,62,61,62,51,50,50,62,61,62,50,50,50,62,62,62,50,50,50,62,62,62,left
50,51,49,63,73,64,51,51,49,66,71,63,51,51,50,63,73,65,51,50,50,64,72,65,51,50,51,64,71,64,51,50,51,64,66,61,51,50,52,65,60,62,51,50,51,58,53,61,50,50,51,59,50,60,50,51,51,58,49,60,50,51,50,59,51,61,50,51,49,55,55,60,50,51,50,65,58,60,50,51,50,58,59,63,50,51,50,64,61,60,50,51,50,61,64,63,50,50,50,64,66,63,50,51,50,62,66,62,50,50,50,66,68,63,50,51,51,62,66,63,50,50,51,63,63,61,50,51,50,62,63,62,51,50,51,63,63,61,51,50,51,62,63,63,51,50,51,62,62,61,51,51,51,61,62,62,51,50,51,62,62,62,50,50,51,62,61,62,50,50,50,62,62,61,50,51,50,62,62,62,left
52,50,51,66,92,67,51,50,51,67,77,64,51,50,51,64,69,64,51,50,51,65,65,62,51,50,51,61,61,63,50,50,51,60,54,61,50,50,50,59,53,62,50,50,50,60,55,60,50,51,50,59,56,60,50,50,50,62,59,62,50,51,50,62,60,60,50,51,50,61,60,62,50,51,50,62,60,60,50,51,50,61,62,62,50,51,50,63,63,62,50,51,50,61,63,63,50,51,50,63,64,62,50,51,50,62,65,63,50,51,50,63,65,62,50,51,50,62,65,63,50,50,51,63,64,62,50,50,51,62,64,63,50,50,51,62,62,62,51,50,51,62,63,62,50,50,51,62,62,62,50,50,51,62,62,62,50,50,51,62,62,62,50,50,50,62,62,62,50,50,50,62,62,62,50,50,50,62,62,62,left
52,49,50,71,96,70,51,49,51,68,78,67,50,49,51,63,67,64,50,49,50,62,63,62,50,50,50,62,62,63,50,50,50,59,53,61,50,50,50,59,53,60,50,50,50,60,55,59,50,50,50,61,56,60,50,50,49,60,57,62,50,50,49,62,59,61,50,50,49,60,60,63,50,50,49,63,63,60,50,50,49,62,65,64,50,50,50,63,66,62,50,50,50,62,65,62,50,50,50,64,66,63,50,50,50,62,64,62,50,50,50,63,64,62,50,50,50,62,63,62,50,50,50,62,63,62,50,50,50,62,62,62,50,50,50,62,62,62,50,50,50,62,62,62,50,50,50,62,62,62,50,50,50,62,62,62,50,50,50,62,62,61,50,50,50,62,62,63,50,50,50,62,62,61,50,50,50,62,62,62,left
51,49,51,69,89,66,51,49,51,65,72,63,50,50,50,62,65,62,50,50,50,62,62,62,50,50,50,62,61,63,50,50,50,60,54,61,50,50,50,61,55,61,50,50,50,61,56,61,50,50,50,61,57,61,50,50,49,61,58,61,50,50,49,61,59,61,50,50,49,62,61,61,50,50,49,62,62,62,50,50,50,62,63,61,50,50,50,61,64,64,50,50,50,63,66,62,50,50,50,62,65,64,50,50,50,63,65,62,50,50,50,63,65,63,50,50,50,63,64,62,50,50,50,63,63,62,50,50,50,62,62,62,50,50,50,62,62,61,50,50,50,62,62,62,50,50,50,62,62,61,50,50,50,62,62,62,50,50,50,62,62,62,50,50,50,62,62,62,50,50,50,61,62,62,50,50,50,62,62,61,left
50,50,48,67,72,62,50,50,49,64,72,63,50,50,49,64,72,64,50,50,50,63,70,64,50,50,50,63,69,63,50,50,51,63,68,64,50,49,51,62,62,63,50,49,50,61,57,61,50,50,50,61,56,59,50,50,50,60,54,61,50,50,50,59,51,60,50,50,50,60,54,58,50,50,50,61,56,61,50,50,50,61,57,61,50,50,49,61,57,60,50,50,49,62,60,62,50,50,49,61,61,61,50,50,49,61,63,63,50,50,49,62,65,61,50,50,50,62,67,64,50,50,50,62,66,63,50,50,50,64,66,62,50,50,50,63,65,63,50,50,50,62,64,63,50,50,50,63,62,62,50,50,50,62,62,62,50,50,50,62,62,62,50,50,50,61,62,62,50,50,50,62,62,61,50,50,50,62,62,62,left
50,50,48,65,73,63,50,50,49,64,72,64,50,50,49,64,70,63,50,50,50,63,71,63,50,50,50,64,69,63,50,50,51,62,65,64,50,49,51,62,61,61,50,50,50,61,58,62,50,50,50,61,54,60,50,50,50,59,53,61,50,50,50,61,53,59,50,50,50,61,54,58,50,50,50,60,56,60,50,50,49,61,56,60,50,50,49,61,60,61,50,50,49,61,61,62,50,50,49,61,65,63,50,50,49,63,66,62,50,50,50,61,67,65,50,50,50,63,66,61,50,50,50,62,66,64,50,50,50,63,64,62,50,50,50,62,64,63,50,50,50,62,62,62,50,50,50,62,62,62,50,50,50,62,62,62,50,50,50,62,62,62,50,50,50,62,62,62,50,50,50,62,62,62,50,50,50,62,62,62,left
50,50,48,63,66,62,50,50,48,65,70,62,50,50,49,63,71,63,50,50,49,64,72,63,50,50,50,64,71,64,50,50,50,63,67,63,50,49,51,61,63,63,50,49,51,62,59,61,50,50,51,61,55,62,50,50,50,59,52,60,50,50,50,61,53,58,50,50,50,60,54,59,50,50,50,61,54,60,50,50,49,59,56,61,50,50,49,63,58,60,50,50,49,60,60,64,50,50,49,64,61,60,50,50,49,59,63,64,50,50,49,64,64,62,50,50,49,60,66,64,50,50,50,64,66,61,50,50,50,60,67,64,50,50,50,65,65,62,50,50,50,61,65,63,50,50,50,64,63,61,50,50,50,62,63,63,50,50,50,63,62,61,50,50,50,61,62,62,50,50,50,62,62,62,50,50,50,61,62,62,left
50,48,49,71,98,71,49,48,49,66,79,67,49,48,49,65,70,64,49,48,49,63,64,63,49,48,49,62,61,63,48,48,49,60,52,60,48,48,48,60,51,59,48,48,48,59,52,59,48,49,48,60,54,58,48,49,48,61,57,61,48,49,48,62,60,61,48,49,48,62,62,62,48,49,48,62,64,61,48,48,48,62,66,64,48,48,48,62,66,62,48,48,48,62,65,63,48,48,48,62,65,63,48,48,48,63,65,63,48,48,48,63,64,62,48,48,48,63,64,62,48,48,49,62,63,62,48,48,49,63,62,62,48,48,48,61,62,62,48,48,48,62,62,61,48,48,48,61,62,62,48,48,48,62,62,61,48,48,48,61,62,62,48,48,48,62,62,62,48,48,48,61,62,62,48,48,48,62,62,61,left
49,49,46,68,73,64,49,49,47,63,73,64,49,48,48,65,72,64,49,48,48,63,72,64,49,48,49,63,70,64,49,48,49,61,65,64,49,48,49,61,60,61,49,48,49,61,56,61,48,48,49,60,52,60,48,48,48,59,50,61,48,48,48,59,51,58,48,48,48,61,53,58,48,48,48,60,56,61,48,49,48,60,58,60,48,49,48,62,62,62,48,48,48,62,64,63,48,49,48,62,65,62,48,49,48,62,66,64,48,48,48,64,66,64,48,48,48,63,65,63,48,48,48,63,65,61,48,48,49,63,64,63,48,48,49,63,63,62,48,48,49,62,63,62,48,48,49,62,62,62,48,48,48,62,62,62,48,48,48,62,62,62,48,48,48,62,62,62,48,48,48,62,62,62,48,48,48,62,62,62,left
49,49,46,66,69,60,49,49,47,66,72,63,49,48,48,65,71,63,49,48,48,64,72,63,49,48,49,64,70,62,49,48,49,63,67,64,49,48,49,62,62,63,49,48,49,62,55,60,48,48,49,60,52,62,48,48,49,59,49,59,48,48,48,58,49,62,48,48,48,59,52,55,48,49,48,59,57,64,48,49,48,60,60,59,48,48,48,63,62,63,48,49,48,62,65,61,48,49,48,63,67,62,48,49,48,62,67,63,48,48,48,64,66,63,48,49,48,61,66,62,48,48,49,64,65,64,48,48,49,62,63,63,48,48,49,63,62,62,48,48,48,62,62,62,48,48,48,62,62,61,48,48,48,62,62,62,48,48,48,62,62,61,48,48,48,62,62,62,48,48,48,62,62,62,48,48,48,62,62,62,left
49,49,46,69,69,61,49,49,48,66,71,64,49,48,48,65,72,64,49,48,48,65,71,63,49,48,49,64,68,63,49,48,49,61,66,64,49,48,49,62,62,61,49,48,49,61,56,60,48,48,49,58,52,61,48,48,49,59,51,61,48,49,48,60,51,58,48,49,48,59,52,60,48,48,48,60,56,62,48,48,48,61,60,61,48,48,48,62,62,61,48,49,48,61,65,61,48,49,48,62,66,63,48,49,48,62,67,63,48,48,48,63,66,63,48,48,48,62,66,63,48,48,49,64,65,63,48,48,49,62,64,63,48,48,49,63,62,62,48,48,48,62,62,62,48,48,48,62,62,62,48,48,48,62,62,62,48,48,48,62,62,62,48,48,48,62,62,62,48,48,48,62,62,62,48,48,48,62,62,61,left
48,46,47,71,100,69,48,46,47,64,79,65,47,46,48,64,69,64,47,46,48,63,63,61,47,46,47,61,59,62,47,47,47,58,49,59,47,47,47,59,49,59,46,47,46,59,51,58,46,47,46,58,54,60,46,47,46,61,58,60,46,47,46,61,61,62,46,47,46,62,63,60,46,47,46,60,65,64,46,47,46,63,66,61,46,47,47,61,65,64,47,47,47,62,64,60,47,47,47,61,63,64,47,47,47,63,63,60,47,47,47,61,62,62,47,47,47,62,62,60,47,47,47,61,62,61,47,47,47,61,61,61,47,47,47,61,61,61,47,47,47,61,61,61,47,47,47,61,61,61,47,47,47,61,61,61,47,47,47,61,61,61,47,47,47,61,61,61,47,47,47,61,61,61,47,47,47,61,61,61,left
48,46,48,68,94,69,48,46,48,67,78,64,47,46,48,64,67,63,47,46,48,63,62,62,47,46,47,61,59,63,47,47,47,59,51,58,46,47,47,58,50,60,46,47,46,59,52,59,46,47,46,59,55,59,46,47,46,60,59,60,46,47,46,62,61,61,46,47,46,60,63,61,46,47,46,62,64,61,46,47,46,61,65,62,47,47,47,63,65,62,47,47,47,61,65,62,47,47,47,63,63,61,47,47,47,61,63,62,47,47,47,62,62,61,47,47,47,61,62,62,47,47,47,61,61,61,47,47,47,61,61,61,47,47,47,61,61,61,47,47,47,61,61,61,47,47,47,61,61,61,47,47,47,61,61,61,47,47,47,61,61,61,47,47,47,61,61,61,47,47,47,61,61,61,47,47,47,61,61,61,left
47,47,45,65,67,62,47,47,46,66,69,63,47,47,46,63,71,63,47,47,47,63,71,63,47,47,47,63,69,63,47,46,47,62,67,63,47,46,48,60,62,62,47,46,47,61,56,60,47,47,47,59,52,59,47,47,47,58,49,60,46,47,46,59,50,57,46,47,46,59,52,58,46,47,46,59,55,60,46,47,46,61,58,60,46,47,46,61,61,61,46,47,46,61,62,61,46,47,46,62,64,62,47,47,46,61,65,61,47,47,47,63,64,62,47,47,47,62,65,61,47,47,47,62,64,62,47,47,47,61,64,62,47,47,47,62,63,61,47,47,47,61,62,62,47,47,47,61,62,61,47,47,47,61,61,61,47,47,47,61,61,62,47,47,47,61,61,60,47,47,47,60,61,62,47,47,47,62,61,60,left
47,47,45,67,72,63,47,47,46,63,73,63,47,47,46,64,73,63,47,47,47,63,72,64,47,47,47,63,69,63,47,46,48,61,64,63,47,46,48,61,59,60,47,46,47,59,53,61,47,47,47,59,50,60,47,47,47,58,49,58,46,47,46,59,50,58,46,47,46,59,53,59,46,47,46,62,56,60,47,47,46,60,59,61,46,47,46,63,62,60,46,47,46,59,65,63,46,47,46,64,66,60,46,47,47,60,67,64,46,47,47,64,65,60,47,47,47,60,65,63,47,47,47,63,63,61,47,47,47,60,63,62,47,47,47,62,62,60,47,47,47,60,62,63,47,47,47,62,61,61,47,47,47,61,61,61,47,47,47,61,61,61,47,47,47,61,61,61,47,47,47,61,61,61,47,47,47,61,61,61,left
47,47,45,67,68,62,47,47,46,63,71,63,47,47,46,63,71,63,47,47,46,63,71,63,47,47,47,63,70,62,47,46,47,61,67,64,47,46,48,62,62,62,47,46,48,62,55,60,47,46,47,58,51,59,47,47,47,58,49,59,46,47,47,58,49,59,46,47,46,58,51,56,46,47,46,57,56,62,46,47,46,61,59,58,46,47,46,61,62,62,46,47,46,62,63,62,47,47,46,62,64,61,47,47,46,62,65,63,47,47,47,62,64,62,47,47,47,61,64,63,47,47,47,61,64,61,47,47,47,62,63,61,47,47,47,62,63,62,47,47,47,62,62,60,47,47,47,62,62,62,47,47,47,61,61,60,47,47,47,60,62,62,47,47,47,62,61,61,47,47,47,61,61,60,47,47,47,61,61,62,left
47,47,45,72,75,62,47,47,46,63,75,64,47,47,46,63,76,63,47,47,47,63,73,64,47,46,47,62,68,63,47,46,48,60,62,63,47,46,48,62,56,59,47,46,47,59,49,60,47,47,47,58,47,60,46,47,47,59,48,56,46,47,46,57,51,58,46,47,46,60,56,60,46,47,46,59,59,60,47,47,46,64,61,60,47,47,46,59,65,63,47,47,46,63,66,62,47,47,46,60,66,63,46,47,47,64,66,60,46,47,47,60,65,65,47,46,47,63,63,61,47,47,47,62,63,61,47,47,47,61,62,62,47,47,47,62,61,60,47,47,47,61,61,62,47,47,47,61,61,61,47,47,47,61,61,62,47,47,47,61,61,61,47,47,47,61,61,61,47,47,47,61,61,61,47,47,47,61,61,61,left
47,47,45,68,70,61,47,47,46,62,71,63,47,47,46,64,71,62,47,47,47,63,72,63,47,47,47,63,69,63,47,46,47,61,64,64,47,46,48,62,59,60,47,46,48,60,54,60,47,46,47,58,49,61,47,47,47,58,49,58,47,47,46,59,51,58,46,47,46,59,53,60,46,47,46,60,57,61,46,47,46,62,60,59,46,47,46,61,63,62,46,47,46,61,64,62,46,47,46,61,65,61,47,47,47,62,65,61,47,47,47,61,65,62,47,47,47,62,65,61,47,47,47,61,64,63,47,47,47,62,63,61,47,47,47,61,63,62,47,47,47,62,61,61,47,47,47,61,61,62,47,47,47,62,61,60,47,47,47,61,61,62,47,47,47,62,61,61,47,47,47,61,61,61,47,47,47,61,61,61,left
46,47,45,64,66,62,47,47,45,64,69,63,47,47,46,63,70,63,47,47,46,63,71,63,47,47,47,63,71,63,47,46,47,62,68,63,47,46,48,61,63,63,47,46,48,64,56,60,47,46,48,58,51,61,47,47,47,58,46,58,46,47,47,59,47,58,46,47,46,59,50,56,46,47,46,57,54,60,46,47,46,63,58,59,46,47,46,61,63,60,46,47,46,60,64,63,46,47,46,62,66,61,47,47,46,61,68,64,47,47,47,62,66,62,47,47,47,62,65,63,47,47,47,63,64,61,47,47,47,62,62,63,47,47,47,62,61,60,47,47,47,61,61,62,47,47,47,62,61,60,47,47,47,61,61,61,47,47,47,61,61,61,47,47,47,61,61,61,47,47,47,61,61,61,47,47,47,61,61,61,left
47,47,45,68,68,63,47,47,46,63,71,63,47,47,46,63,70,63,47,47,46,63,70,63,47,47,47,62,69,62,47,46,48,62,66,63,47,46,48,61,60,62,47,46,48,61,56,60,47,47,47,59,50,59,47,47,47,59,48,59,46,47,46,58,48,59,46,47,46,59,51,58,46,47,46,59,55,60,46,47,46,61,61,61,46,47,46,64,63,62,46,47,46,61,66,61,46,47,46,63,67,62,46,47,47,61,67,62,46,47,47,63,65,61,47,47,47,59,65,62,47,47,47,63,63,62,47,47,47,60,62,61,47,47,47,62,62,61,47,47,47,60,61,62,47,47,47,62,61,61,47,47,47,61,61,62,47,47,47,62,61,60,47,47,47,61,61,62,47,47,47,62,61,61,47,47,47,61,61,61,left
47,47,45,68,68,61,47,47,46,63,71,63,47,47,46,65,71,63,47,47,46,63,70,63,47,47,47,63,69,62,47,46,47,61,68,64,47,46,48,62,62,62,47,46,48,59,56,61,47,47,47,59,53,59,47,47,47,59,49,59,46,47,47,58,47,59,46,47,46,59,49,56,46,47,46,59,54,59,46,47,46,62,58,60,46,47,46,61,62,61,46,47,46,63,64,62,46,47,46,61,67,62,46,47,47,63,67,63,46,47,47,60,65,64,47,47,47,62,64,60,47,47,47,61,64,63,47,47,47,62,62,61,47,47,47,61,62,62,47,47,47,61,62,61,47,47,47,61,61,61,47,47,47,61,61,61,47,47,47,61,61,61,47,47,47,61,61,61,47,47,47,61,61,61,47,47,47,61,61,61,left
48,46,47,68,95,70,48,46,47,66,76,66,47,46,47,61,66,63,47,46,47,63,63,61,47,47,47,60,60,63,47,47,47,59,52,59,47,47,47,58,51,59,47,47,47,61,53,58,47,47,46,58,53,60,47,47,46,62,56,60,46,47,46,61,58,61,46,47,46,61,60,60,46,47,46,61,63,62,46,47,46,62,66,62,46,47,47,61,66,62,46,47,47,61,66,62,47,47,47,62,65,61,47,47,47,63,65,63,47,47,47,62,62,61,47,47,47,61,63,61,47,47,47,62,62,61,47,47,47,61,61,61,47,47,47,60,61,62,47,47,47,61,61,60,47,47,47,61,61,61,47,47,47,61,61,61,47,47,46,61,61,60,47,47,46,62,64,61,47,47,46,62,66,62,47,47,46,62,68,62,left
47,46,48,59,69,66,47,46,48,64,65,63,47,46,48,60,58,63,47,46,48,60,56,60,47,46,48,60,53,61,47,47,47,59,50,58,46,47,47,58,48,60,47,47,47,59,51,56,46,47,46,59,52,59,46,47,46,62,56,60,47,47,46,59,59,59,47,47,46,63,63,62,46,47,46,60,65,62,46,47,46,62,67,63,46,47,47,59,67,61,46,47,47,65,66,63,47,47,47,60,64,64,47,46,47,63,62,61,47,47,47,61,62,61,47,47,47,62,62,61,47,47,47,61,62,61,47,47,47,61,61,61,47,47,47,61,61,61,47,47,47,61,61,61,47,47,47,61,61,62,47,47,47,61,61,61,47,47,47,61,61,61,47,47,47,61,61,61,47,47,47,61,61,62,47,47,47,61,61,61,left
47,47,45,65,66,60,47,47,46,61,70,63,47,47,46,64,70,62,47,47,46,62,71,63,47,47,47,63,71,62,47,46,48,61,65,64,47,46,47,61,61,60,47,47,48,60,58,61,47,47,48,61,52,60,47,47,47,59,46,59,47,47,47,59,50,57,47,47,46,60,50,58,46,47,46,58,52,61,46,47,46,60,56,58,46,47,46,61,62,60,46,47,46,61,66,62,46,47,46,61,67,64,46,47,47,63,67,61,46,47,47,62,67,63,47,47,47,62,65,63,47,46,47,61,63,62,47,47,47,62,62,61,47,47,47,61,62,61,47,47,47,62,61,61,47,47,47,60,61,62,47,47,47,62,61,60,47,47,47,61,61,61,47,47,47,62,61,61,47,47,47,61,61,62,47,47,47,62,61,60,left
47,47,45,66,46,58,47,47,45,60,60,61,47,47,46,63,66,63,47,47,46,62,68,63,47,47,47,62,66,60,47,47,46,62,68,62,47,47,47,62,70,63,47,46,47,62,70,65,48,46,48,64,68,64,48,46,48,61,62,59,47,47,48,54,58,62,47,46,48,60,48,56,46,47,47,57,45,65,46,47,46,58,45,48,46,47,46,59,52,63,46,47,46,65,56,57,46,47,46,61,63,63,46,47,46,62,62,59,46,47,46,62,63,62,47,47,46,61,64,60,47,47,47,62,64,63,47,47,47,61,64,61,47,47,47,63,64,61,47,47,47,60,64,64,47,47,47,63,63,61,47,47,47,60,63,63,47,47,47,62,61,60,47,47,47,61,61,62,47,47,47,62,61,60,47,47,47,61,61,62,left
47,47,45,64,68,63,47,47,46,65,72,64,47,47,46,63,73,64,47,47,46,64,72,64,47,46,47,63,70,64,47,46,48,62,64,63,47,46,48,60,57,60,47,46,48,59,51,58,47,47,47,57,48,61,46,47,47,58,47,56,46,47,46,58,50,58,46,47,46,60,55,59,46,47,46,61,60,60,46,47,46,62,63,61,46,47,46,62,64,61,46,47,46,62,66,63,47,47,47,63,66,62,47,47,47,61,65,63,47,47,47,63,64,61,47,47,47,61,63,63,47,47,47,62,62,61,47,47,47,61,62,62,47,47,47,62,61,60,47,47,47,61,61,62,47,47,47,61,61,61,47,47,47,61,61,61,47,47,47,61,61,61,47,47,47,61,61,61,47,47,47,61,61,61,47,47,47,61,61,61,left
47,47,45,65,67,62,47,47,45,65,69,63,47,47,46,63,72,64,47,47,46,63,72,63,47,46,47,64,71,63,47,46,48,61,65,63,47,46,48,60,60,61,47,46,48,60,55,59,47,47,47,58,49,60,46,47,47,57,46,59,46,47,46,60,50,56,46,47,46,59,52,60,46,47,46,61,55,59,46,47,46,61,59,62,46,47,46,62,63,59,46,47,46,62,66,63,46,47,46,63,67,61,46,47,47,61,67,64,46,47,47,62,66,61,47,47,47,62,65,62,47,47,47,61,63,62,47,47,47,61,62,62,47,47,47,61,61,61,47,47,47,61,61,61,47,47,47,61,61,61,47,47,47,61,61,61,47,47,47,61,61,61,47,47,47,61,61,61,47,47,47,61,61,61,47,47,47,61,61,61,left
47,47,45,66,69,61,47,47,45,62,71,64,47,47,46,64,72,63,47,47,46,62,72,63,47,47,47,62,70,63,47,46,48,61,66,63,47,46,48,61,60,60,47,46,48,60,53,60,47,46,47,59,49,61,46,47,47,59,47,57,46,47,46,59,50,59,46,47,46,59,52,58,46,47,46,60,57,61,46,47,46,62,61,59,46,47,46,60,63,63,46,47,46,62,64,59,46,47,46,61,66,64,47,47,47,62,65,60,47,47,47,61,64,63,47,47,47,62,64,60,47,47,47,61,63,64,47,47,47,63,62,61,47,47,47,61,62,62,47,47,47,62,62,61,47,47,47,61,62,62,47,47,47,62,61,60,47,47,47,61,61,61,47,47,47,62,61,61,47,47,47,61,61,61,47,47,47,61,61,61,left
47,47,45,69,82,66,47,47,46,62,79,66,47,46,47,64,74,64,47,47,47,63,71,64,47,46,47,62,66,64,47,46,48,60,59,62,47,46,47,61,54,58,47,47,47,59,52,60,47,47,47,58,50,58,46,47,46,60,51,58,47,47,46,60,53,58,47,47,46,60,55,60,47,47,46,61,57,60,47,47,46,61,60,61,46,47,46,61,63,62,46,47,46,62,65,60,46,47,46,62,66,64,46,47,47,62,66,60,46,47,47,62,65,64,47,47,47,62,64,61,47,47,47,61,63,62,47,47,47,62,62,61,47,47,47,61,61,61,47,47,47,61,61,61,47,47,47,61,61,61,47,47,47,61,61,61,47,47,47,61,61,61,47,47,47,61,61,61,47,47,47,61,61,61,47,47,47,61,61,61,left
47,47,45,67,73,64,47,47,46,64,71,64,47,47,46,63,72,64,47,47,46,62,72,64,47,47,47,63,70,64,47,46,48,61,64,63,47,46,48,61,59,61,47,46,48,60,53,60,47,46,47,59,49,58,46,47,47,58,47,58,46,47,46,59,50,57,46,47,46,59,53,58,46,47,46,60,58,61,46,47,46,61,61,60,46,47,46,62,62,61,46,47,46,61,64,62,46,47,46,62,65,63,46,47,47,62,65,62,47,47,47,62,64,62,47,47,47,61,65,62,47,47,47,62,63,62,47,47,47,62,62,61,47,47,47,61,62,61,47,47,47,61,61,61,47,47,47,61,61,61,47,47,47,61,61,61,47,47,47,61,61,61,47,47,47,61,61,62,47,47,47,62,61,61,47,47,47,61,61,62,left
56,54,54,62,14,57,55,54,54,61,39,58,55,55,54,63,53,60,55,55,54,62,57,60,55,55,54,61,60,60,55,55,54,61,72,61,55,55,54,62,73,63,55,55,55,60,72,62,55,55,55,61,70,63,55,55,55,62,69,62,55,54,55,62,67,62,55,54,55,63,65,61,55,55,55,61,60,62,55,55,55,63,59,60,54,55,55,60,56,61,54,55,55,61,56,59,55,55,55,60,55,61,55,55,55,61,57,59,55,55,55,59,56,61,55,55,54,61,59,61,55,55,54,61,59,60,55,55,54,61,60,61,55,55,54,62,61,61,55,55,55,61,61,62,55,55,55,61,62,61,55,55,55,61,61,61,55,55,55,61,61,61,55,55,55,61,61,61,55,55,55,61,61,61,55,55,55,61,61,61,right
55,54,56,59,56,62,55,55,55,60,53,61,55,55,55,61,53,61,55,54,55,61,53,60,55,55,55,59,54,60,55,55,54,61,53,59,55,55,54,61,58,61,55,55,54,60,63,61,55,55,54,61,65,62,55,55,54,63,69,61,54,55,54,62,73,63,55,55,55,62,71,62,55,54,55,62,70,63,55,55,55,62,69,61,55,55,55,60,67,61,55,55,55,63,66,61,55,55,55,62,63,62,55,55,55,62,60,60,55,55,55,62,57,62,54,55,55,62,56,60,55,55,55,58,55,62,54,55,55,61,55,60,54,55,54,59,56,61,54,55,54,60,58,61,55,55,54,61,60,61,55,55,54,61,60,60,55,55,55,61,62,62,55,55,55,62,61,61,55,55,55,61,61,61,55,55,55,61,61,61,right
55,54,56,60,53,61,55,55,55,59,52,61,55,55,55,61,53,61,55,55,55,60,53,61,55,55,55,60,54,60,55,55,54,61,55,61,55,55,54,61,58,61,55,55,54,62,63,62,54,55,54,62,67,61,54,55,54,62,70,62,54,55,55,62,71,61,54,55,55,62,71,62,55,55,55,62,69,61,55,55,55,61,68,61,55,55,55,61,66,62,55,55,55,62,65,61,55,55,55,62,64,61,55,55,55,62,62,62,55,54,55,62,58,61,55,55,55,62,56,60,54,55,55,60,55,61,54,55,55,60,55,61,54,55,54,59,56,60,54,55,54,60,58,61,55,55,54,61,60,61,55,55,54,61,61,61,55,55,55,62,61,61,55,55,55,61,61,61,55,55,55,61,61,61,55,55,55,61,61,61,right
55,54,56,59,53,61,55,55,55,59,52,61,55,55,55,60,53,61,55,55,55,61,53,61,55,55,54,61,54,61,55,55,54,61,55,60,55,55,54,61,58,61,54,55,54,62,62,61,54,55,54,61,67,61,54,55,54,62,69,61,54,55,55,62,71,62,54,55,55,63,71,61,55,55,55,62,68,61,55,55,55,62,67,61,55,55,55,60,64,62,55,55,55,62,64,60,55,55,55,62,61,62,55,55,55,61,61,61,55,55,55,61,60,62,55,55,55,62,61,62,55,55,55,60,59,61,55,55,55,61,60,62,55,55,55,61,59,60,55,55,55,60,58,62,55,55,55,61,58,60,55,55,55,61,59,61,55,55,55,60,59,61,55,55,55,61,60,61,55,55,55,61,60,61,55,55,55,61,61,61,right
55,54,56,56,47,60,55,55,55,59,49,60,55,55,55,61,51,60,55,55,55,60,53,60,55,55,54,60,55,60,55,55,54,62,58,61,55,55,54,62,63,61,54,55,54,61,67,62,54,55,54,62,69,62,54,55,54,63,70,62,54,55,55,63,71,62,55,55,55,61,69,62,55,55,55,62,67,61,55,55,55,61,64,61,55,55,55,62,63,61,55,55,55,61,60,62,55,55,55,61,59,61,55,55,55,61,59,62,55,55,55,61,59,61,55,55,55,60,59,61,55,55,55,61,59,61,55,55,55,61,59,61,55,55,55,60,58,61,55,55,55,61,59,61,55,55,55,61,59,61,55,55,55,60,60,61,55,55,54,61,61,61,55,55,55,61,61,61,55,55,55,61,61,61,55,55,55,61,61,61,right
55,54,56,59,52,61,55,55,55,59,53,61,55,55,55,60,53,61,55,55,55,61,54,60,55,55,55,60,55,61,55,55,54,60,57,60,55,55,54,61,58,61,55,55,54,61,62,61,54,55,54,61,65,62,54,55,54,63,68,62,54,55,54,63,70,62,55,55,55,63,71,62,55,55,55,63,69,62,55,55,55,63,68,61,55,55,55,61,65,62,55,55,55,62,64,61,55,55,55,62,62,62,55,55,55,60,60,61,55,55,55,61,59,62,55,55,55,61,58,61,55,55,55,61,58,61,54,55,55,60,58,61,55,55,55,61,58,61,55,55,54,60,58,60,55,55,54,61,60,61,55,55,54,61,59,60,55,55,55,61,61,61,55,55,55,61,61,61,55,55,55,61,61,61,55,55,55,61,61,61,right
55,55,53,59,35,57,55,55,54,61,50,59,55,55,54,60,57,61,55,55,54,61,60,61,55,55,54,61,62,60,55,55,55,62,68,62,55,55,55,62,68,62,55,55,55,62,67,62,55,55,55,62,67,62,55,55,55,61,65,62,55,55,55,62,65,61,55,55,55,61,63,61,55,55,55,62,62,61,55,55,55,62,60,61,55,55,55,61,59,61,55,55,55,61,56,60,55,55,55,61,56,61,55,55,55,60,56,60,54,55,54,59,56,61,55,55,54,61,59,61,55,55,54,61,60,61,55,55,54,61,61,61,55,55,55,61,61,61,55,55,55,61,62,61,55,55,55,61,61,61,55,55,55,61,61,61,55,55,55,61,61,61,55,55,55,61,61,61,55,55,55,61,61,61,55,55,55,61,61,61,right
55,55,53,52,36,57,55,55,54,58,50,60,55,55,54,60,55,60,55,55,54,61,59,61,55,55,54,61,61,60,54,55,54,63,67,62,54,55,55,63,68,62,55,55,55,62,68,62,55,55,55,62,67,61,55,55,55,62,66,61,55,55,55,62,64,61,55,55,55,62,63,61,55,55,55,62,62,61,55,55,55,61,60,61,55,55,55,61,60,62,55,55,55,61,59,61,55,55,55,60,58,61,55,55,55,60,58,61,55,55,55,60,58,61,55,55,55,61,58,61,55,55,55,60,59,61,55,55,54,61,60,61,55,55,54,61,60,61,55,55,55,61,61,61,55,55,55,61,61,61,55,55,55,61,61,61,55,55,55,61,61,61,55,55,55,61,61,61,55,55,55,61,61,61,55,55,55,61,61,61,right
55,55,53,56,31,56,55,55,53,59,50,59,55,55,54,59,57,61,55,55,54,61,61,61,55,55,54,61,62,60,54,55,55,62,69,63,55,55,55,62,68,62,55,55,55,62,66,62,55,55,55,62,65,61,55,55,55,61,64,61,55,55,55,61,63,61,55,55,55,62,63,62,55,55,55,61,62,61,55,55,55,62,62,61,55,55,55,61,61,61,55,55,55,62,61,61,55,55,55,61,59,61,55,55,55,61,59,61,55,55,55,60,58,61,55,55,55,61,58,61,55,55,54,60,58,61,55,55,55,60,60,61,55,55,54,61,60,61,55,55,55,61,60,61,55,55,55,61,61,61,55,55,55,61,61,61,55,55,55,61,61,61,55,55,55,61,61,61,55,55,55,61,61,61,55,55,55,61,60,61,right
55,55,53,62,40,58,55,55,53,60,50,60,55,55,53,61,56,61,55,55,54,61,61,61,55,55,54,61,63,61,54,55,54,61,68,62,54,55,55,62,69,62,55,55,55,62,68,61,55,55,55,61,66,61,55,55,55,62,65,61,55,55,55,61,64,61,55,55,55,62,63,61,55,55,55,61,63,61,55,55,55,62,63,61,55,55,55,61,60,62,55,55,55,62,61,61,55,55,55,61,59,61,55,55,55,61,59,61,55,55,55,61,57,61,55,55,55,61,59,61,55,55,55,60,58,60,55,55,55,60,60,62,55,55,54,61,59,60,55,55,55,61,60,62,55,55,55,61,61,60,55,55,55,61,61,62,55,55,55,61,61,61,55,55,55,61,61,61,55,55,55,61,61,61,55,55,55,61,60,61,right
55,54,53,61,42,59,55,55,53,60,50,60,55,55,54,61,54,60,55,55,54,61,56,60,55,55,54,62,61,61,54,55,54,61,66,61,54,55,54,62,68,62,54,55,55,62,68,62,55,55,55,62,69,62,55,55,55,62,66,62,55,55,55,62,66,62,55,55,55,61,65,61,55,55,55,61,65,61,55,55,55,61,63,61,55,55,55,61,63,62,55,55,55,62,60,61,55,55,55,62,59,61,55,55,55,61,58,61,55,55,55,61,58,61,55,55,55,60,57,61,55,55,55,60,58,61,55,55,54,61,59,61,55,55,54,60,59,61,55,55,54,61,61,61,55,55,55,61,61,61,55,55,55,61,61,61,55,55,55,61,61,61,55,55,55,61,61,61,55,55,55,61,60,61,55,55,55,61,60,61,right
55,55,53,63,41,58,55,55,53,61,53,60,55,55,54,61,56,60,55,55,54,62,60,61,55,55,54,61,62,61,54,55,54,61,67,62,55,55,55,62,67,61,55,55,55,61,68,62,55,55,55,61,67,62,55,55,55,61,66,61,55,55,55,62,65,61,55,55,55,62,65,61,55,55,55,62,62,61,55,55,55,62,60,61,55,55,55,62,59,61,55,55,55,61,57,61,54,55,55,60,56,61,54,55,55,60,57,61,54,55,55,60,57,61,55,55,54,61,58,61,55,55,54,60,60,61,55,55,54,61,61,61,55,55,55,61,61,61,55,55,55,61,61,61,55,55,55,61,61,61,55,55,55,61,61,61,55,55,55,61,61,61,55,55,55,61,61,61,55,55,55,61,61,61,55,55,55,61,61,61,right
56,54,53,57,26,56,55,55,53,62,49,60,55,55,54,61,58,61,55,55,54,61,60,61,55,55,54,61,62,60,54,55,55,62,70,62,55,54,55,61,68,61,55,55,55,62,66,62,55,55,55,62,65,61,55,55,55,61,65,61,55,55,55,61,63,61,55,55,55,62,64,62,55,55,55,61,61,61,55,55,55,61,61,62,55,55,55,61,59,61,55,55,55,62,59,61,55,55,55,60,58,61,55,55,55,61,59,61,55,55,55,61,59,60,55,55,55,61,59,61,55,55,55,61,60,61,55,55,54,61,60,61,55,55,55,61,60,61,55,55,55,61,61,61,55,55,55,61,61,61,55,55,55,61,61,61,55,55,55,61,61,61,55,55,55,61,61,61,55,55,55,61,61,61,55,55,55,61,61,61,right
56,55,54,58,31,58,55,55,54,61,46,59,55,55,54,61,54,61,55,55,54,61,61,61,55,55,54,61,62,61,54,55,54,62,69,61,54,55,55,61,70,62,55,55,55,61,69,62,55,55,55,61,66,61,55,55,55,62,65,61,55,55,55,62,64,61,55,55,55,62,62,62,55,55,55,61,60,61,55,55,55,61,60,61,55,55,55,61,59,61,55,55,55,61,59,62,55,55,55,61,59,60,55,55,55,61,59,61,55,55,55,61,59,61,55,55,55,61,59,61,55,55,54,61,60,61,55,55,55,61,60,61,55,55,55,61,61,61,55,55,55,61,61,61,55,55,55,61,61,61,55,55,55,61,61,61,55,55,55,61,61,61,55,55,55,61,61,61,55,55,55,61,61,61,55,55,55,61,61,61,right
56,55,53,59,31,57,55,55,53,59,49,60,55,55,54,61,57,61,55,55,54,61,60,61,55,55,54,61,61,60,54,55,55,62,68,62,55,55,55,62,67,62,55,55,55,61,66,61,55,55,55,62,65,61,55,55,55,61,64,61,55,55,55,61,63,61,55,55,55,62,63,61,55,55,55,61,62,62,55,55,55,62,62,61,55,55,55,61,61,62,55,55,55,61,61,61,55,55,55,61,60,62,55,55,55,61,59,60,55,55,55,60,58,62,55,55,55,61,58,60,55,55,55,61,58,61,55,55,55,60,58,61,55,55,54,61,60,61,55,55,54,61,60,61,55,55,55,61,61,61,55,55,55,61,61,61,55,55,55,61,61,61,55,55,55,61,61,61,55,55,55,61,61,61,55,55,55,61,61,61,right
55,55,53,58,42,58,55,55,54,60,54,60,55,55,54,61,59,61,55,55,54,61,61,61,55,55,54,62,62,61,55,55,55,62,67,62,55,55,55,62,67,62,55,55,55,62,66,62,55,55,55,61,66,61,55,55,55,61,64,61,55,55,55,62,63,61,55,55,55,62,62,61,55,55,55,62,61,61,55,55,55,62,60,61,55,55,55,62,60,61,55,55,55,60,58,61,55,55,55,61,58,61,55,55,55,60,58,61,55,55,55,60,59,61,55,55,55,60,59,60,55,55,54,61,60,61,55,55,55,61,60,61,55,55,55,61,61,61,55,55,55,61,61,61,55,55,55,61,61,61,55,55,55,61,61,61,55,55,55,61,61,61,55,55,55,61,61,61,55,55,55,61,61,61,55,55,55,61,61,61,right
55,55,53,58,41,58,55,55,54,59,53,60,55,55,54,59,58,61,55,55,54,62,62,61,55,55,54,62,63,60,55,55,55,62,67,62,55,55,55,62,67,62,55,55,55,63,66,62,55,55,55,61,64,62,55,55,55,61,63,61,55,55,55,61,63,62,55,55,55,61,62,61,55,55,55,61,61,61,55,55,55,61,60,61,55,55,55,61,60,61,55,55,55,61,59,61,55,55,55,61,59,61,55,55,55,61,58,61,55,55,55,61,59,61,55,55,55,60,58,61,55,55,54,61,60,61,55,55,55,60,60,61,55,55,54,61,61,61,55,55,55,61,61,61,55,55,55,61,61,61,55,55,55,61,61,61,55,55,55,61,61,61,55,55,55,61,61,61,55,55,55,61,61,61,55,55,55,61,60,61,right
55,55,53,59,41,57,55,55,54,59,53,60,55,55,54,60,57,60,55,55,54,61,60,61,55,55,54,61,61,60,54,55,54,62,66,62,55,55,55,62,67,62,55,55,55,62,67,62,55,55,55,62,66,61,55,55,55,62,65,62,55,55,55,61,63,61,55,55,55,61,63,61,55,55,55,61,63,61,55,55,55,61,62,61,55,55,55,61,61,61,55,55,55,61,61,61,55,55,55,62,60,61,55,55,55,61,59,61,55,55,55,61,59,61,55,55,55,61,58,61,55,55,55,61,59,61,55,55,55,61,59,61,55,55,54,60,60,61,55,55,54,61,61,61,55,55,55,61,61,61,55,55,55,61,61,61,55,55,55,61,61,61,55,55,55,61,61,61,55,55,55,61,61,61,55,55,55,61,60,61,right
55,55,53,58,43,59,55,55,54,60,51,60,55,55,54,60,54,60,55,55,54,61,57,60,55,55,54,61,60,61,55,55,54,61,65,62,54,55,54,62,66,61,54,55,54,62,68,62,55,55,55,62,67,62,55,55,55,62,66,62,55,55,55,62,65,61,55,55,55,61,64,61,55,55,55,62,63,61,55,55,55,61,62,61,55,55,55,61,61,61,55,55,55,61,61,61,55,55,55,62,61,61,55,55,55,61,60,61,55,55,55,61,60,61,55,55,55,61,59,61,55,55,55,61,58,61,55,55,55,60,58,61,55,55,55,60,59,61,55,55,54,61,59,61,55,55,54,60,60,61,55,55,55,61,61,61,55,55,55,61,61,61,55,55,55,61,60,61,55,55,55,60,59,61,55,55,55,61,58,61,right
55,55,53,60,52,58,55,55,54,61,58,60,55,55,54,61,61,60,55,55,54,61,63,61,55,55,54,62,63,61,55,55,54,62,66,62,55,55,55,62,67,62,55,55,55,61,66,62,55,55,55,62,66,62,55,55,55,61,65,62,55,55,55,62,64,61,55,55,55,62,63,61,55,55,55,62,63,62,55,55,55,61,61,61,55,55,55,62,61,61,55,55,55,61,59,61,55,55,55,61,59,62,55,55,55,61,58,60,55,55,55,60,59,62,55,55,55,61,59,60,55,55,55,61,59,61,55,55,55,61,60,60,55,55,55,61,60,61,55,55,55,61,61,61,55,55,55,61,61,61,55,55,55,61,61,61,55,55,55,61,61,61,55,55,55,61,61,61,55,55,55,61,60,61,55,55,55,61,59,61,right
55,55,53,62,41,58,55,55,54,61,51,59,55,55,54,61,56,59,55,55,54,59,59,60,55,55,54,61,61,61,55,55,54,61,67,62,55,55,54,61,68,61,55,55,55,62,68,63,55,55,55,63,67,63,55,54,55,62,66,62,55,55,55,61,65,61,55,55,55,62,64,61,55,55,55,61,63,61,55,55,55,62,61,61,55,55,55,61,61,62,55,55,55,62,60,61,55,55,55,61,59,60,55,55,55,61,59,61,55,55,55,60,58,61,55,55,55,61,58,60,55,55,55,60,57,61,55,55,54,60,59,61,55,55,54,60,59,61,55,55,54,61,60,61,55,55,54,61,61,61,55,55,55,61,61,61,55,55,55,61,61,61,55,55,55,61,61,61,55,55,55,61,61,61,55,55,55,61,61,61,right
55,54,53,59,36,56,55,55,54,59,52,58,55,55,54,59,58,60,55,55,54,61,60,61,55,55,54,61,62,60,55,55,55,62,68,61,55,55,55,62,67,62,55,54,55,62,67,62,55,55,55,61,66,61,55,55,55,62,66,61,55,55,55,61,64,61,55,55,55,62,64,62,55,55,55,62,61,61,55,55,55,63,62,62,55,55,55,61,59,61,55,55,55,61,58,61,54,55,55,61,57,61,54,55,55,60,56,61,54,55,55,59,56,61,54,55,54,60,58,60,55,55,54,61,60,61,55,55,54,61,61,61,55,55,55,61,61,61,55,55,55,61,61,61,55,55,55,60,59,61,55,55,55,61,58,61,55,55,55,61,56,61,55,55,55,62,55,61,55,55,54,61,56,60,55,55,54,61,57,60,right
51,52,51,67,100,66,52,52,52,62,81,62,52,52,52,60,74,61,52,52,52,61,71,61,52,52,52,59,69,62,52,52,52,58,61,58,52,52,52,59,60,59,52,52,52,60,60,59,52,52,52,59,58,58,52,52,52,60,58,58,52,52,52,59,57,58,52,52,52,59,58,59,52,52,52,58,56,58,52,52,52,58,57,59,52,52,52,58,56,59,52,52,52,59,57,59,52,52,52,58,57,59,52,52,52,58,58,59,52,52,52,59,58,58,52,52,52,58,58,59,52,52,52,59,58,58,52,52,52,59,59,59,52,52,52,59,59,59,52,52,52,59,59,59,52,52,52,59,59,58,52,52,52,59,58,59,52,52,52,58,57,59,52,52,52,59,56,59,52,52,52,59,54,59,52,52,52,59,53,58,right
52,52,50,56,53,59,52,52,51,60,57,57,52,52,51,59,61,58,52,52,51,59,65,59,52,52,52,59,65,60,52,52,52,60,67,58,52,52,52,58,67,59,52,52,52,59,67,60,52,52,53,59,63,60,52,52,53,59,63,59,52,52,53,59,60,59,52,52,53,59,60,59,52,52,52,59,58,59,52,52,52,59,57,59,52,52,52,59,56,58,52,52,52,59,57,59,52,52,52,59,56,59,52,52,52,59,57,59,52,52,52,58,57,59,52,52,52,58,57,59,52,52,52,58,57,58,52,52,52,58,58,59,52,52,52,59,58,59,52,52,52,59,58,59,52,52,52,59,58,59,52,52,52,59,59,59,52,52,52,59,59,59,52,52,52,59,59,59,52,52,52,59,59,58,52,52,52,58,59,59,right
53,52,54,59,54,58,53,52,53,57,51,58,52,52,52,57,52,58,52,52,52,58,52,58,52,52,52,59,53,58,52,52,52,59,54,58,52,52,51,59,57,58,52,52,52,59,60,58,52,52,52,59,63,59,52,52,52,59,65,60,52,52,52,59,66,59,52,52,52,59,66,60,52,52,52,60,65,60,52,52,52,60,64,59,52,52,52,59,63,59,52,52,53,59,61,59,52,52,53,60,60,59,52,52,53,59,58,59,52,52,52,59,58,59,52,52,52,58,57,58,52,52,52,58,57,59,52,52,52,59,56,58,52,52,52,59,57,58,52,52,52,58,57,58,52,52,52,59,56,58,52,52,52,60,57,58,52,52,52,58,58,59,52,52,52,58,58,59,52,52,52,59,58,59,52,52,52,59,58,59,right
53,52,51,53,38,56,52,52,51,58,50,58,52,52,51,58,55,59,52,52,52,59,58,59,52,52,52,59,59,58,52,52,52,60,65,60,52,52,52,59,64,59,52,52,52,59,64,59,52,52,52,59,63,59,52,52,52,59,62,59,52,52,52,60,61,58,52,52,52,59,60,59,52,52,52,59,58,58,52,52,52,59,58,59,52,52,52,59,58,59,52,52,52,58,57,59,52,52,52,58,58,59,52,52,52,59,58,59,52,52,52,59,57,59,52,52,52,58,57,59,52,52,52,59,57,59,52,52,52,59,57,58,52,52,52,58,57,58,52,52,52,58,58,59,52,52,52,59,58,58,52,52,52,59,59,59,52,52,52,59,58,59,52,52,52,59,59,59,52,52,52,59,59,59,52,52,52,59,59,59,right
53,52,54,58,51,58,53,52,53,58,50,58,52,52,52,57,51,58,52,52,52,58,52,58,52,52,52,58,53,58,52,52,52,59,55,58,52,52,51,58,58,58,52,52,52,59,61,59,52,52,52,60,63,59,52,52,52,60,65,60,52,52,52,59,66,60,52,52,52,60,65,60,52,52,52,60,64,60,52,52,53,59,62,59,52,52,53,59,62,59,52,52,52,59,59,59,52,52,52,59,59,59,52,52,52,59,58,58,52,52,52,59,60,59,52,52,52,58,58,58,52,52,52,59,58,59,52,52,52,59,58,59,52,52,52,58,57,58,52,52,52,59,56,60,52,52,52,59,58,58,52,52,52,58,57,59,52,52,52,58,57,58,52,52,52,59,57,59,52,52,52,58,58,59,52,52,52,58,58,58,right
53,52,54,57,54,59,53,52,53,57,52,58,52,52,52,57,52,58,52,52,52,58,52,58,52,52,52,58,53,59,52,52,52,59,54,58,52,52,51,60,56,58,52,52,52,60,59,58,52,52,52,58,61,59,52,52,52,59,64,59,52,52,52,59,66,60,52,52,52,59,67,59,52,52,52,59,65,59,52,52,52,61,66,60,52,52,53,59,63,59,52,52,53,59,62,59,52,52,52,60,60,59,52,52,53,59,59,59,52,52,52,59,58,59,52,52,52,59,57,59,52,52,52,59,57,58,52,52,52,58,56,59,52,52,52,59,57,57,52,52,52,58,56,59,52,52,52,59,57,59,52,52,52,59,56,58,52,52,52,58,57,59,52,52,52,59,58,59,52,52,52,59,58,59,52,52,52,59,58,58,right
53,52,54,59,52,60,53,52,53,56,51,59,52,52,52,57,51,59,52,52,52,58,52,59,52,52,52,58,53,59,52,52,52,58,53,58,52,52,51,59,56,59,52,52,51,60,60,59,52,52,52,60,63,59,52,52,52,60,65,59,52,52,52,59,68,59,52,52,52,59,67,59,52,52,53,58,65,59,52,52,52,59,63,59,52,52,52,59,62,59,52,52,52,59,60,58,52,52,52,60,60,59,52,52,52,59,59,59,52,52,52,59,59,59,52,52,52,59,58,59,52,52,52,59,58,59,52,52,52,58,57,59,52,52,52,58,58,59,52,52,52,58,56,59,52,52,52,59,57,59,52,52,52,58,57,59,52,52,52,58,57,58,52,52,52,59,57,59,52,52,52,59,58,58,52,52,52,58,58,59,right
53,52,54,58,55,59,53,52,53,57,52,59,52,52,53,57,52,59,52,52,52,58,52,59,52,52,52,59,53,58,52,52,52,59,53,58,52,52,52,59,56,58,52,52,51,59,58,58,52,52,51,59,62,58,52,52,52,59,65,59,52,52,52,59,66,59,52,52,52,59,67,59,52,52,52,59,67,60,52,52,53,60,65,59,52,52,53,59,63,59,52,52,52,58,62,58,52,52,52,59,61,59,52,52,52,60,60,59,52,52,52,60,58,59,52,52,52,60,57,59,52,52,52,60,57,59,52,52,52,59,57,59,52,52,52,58,56,59,52,52,52,58,56,59,52,52,52,58,56,58,52,52,52,57,56,59,52,52,52,58,57,58,52,52,52,58,57,59,52,52,52,59,58,58,52,52,52,59,59,59,right
53,52,54,58,51,59,52,52,53,57,52,58,52,52,52,57,52,58,52,52,52,58,53,58,52,52,52,58,53,58,52,52,52,59,54,58,52,52,52,60,56,58,52,52,52,59,58,58,52,52,51,58,62,59,52,52,52,59,64,59,52,52,52,59,67,59,52,52,52,58,67,60,52,52,52,60,66,60,52,52,53,60,64,59,52,52,53,59,63,59,52,52,52,58,60,59,52,52,52,59,60,59,52,52,52,59,59,58,52,52,52,59,59,59,52,52,52,59,58,59,52,52,52,60,59,59,52,52,52,59,58,58,52,52,52,59,58,59,52,52,52,59,56,59,52,52,52,59,56,59,52,52,52,57,56,58,52,52,52,58,57,59,52,52,52,58,56,58,52,52,52,58,58,59,52,52,52,59,58,58,right
53,52,54,58,50,59,53,52,53,57,51,59,52,52,53,57,52,59,52,52,52,58,52,58,52,52,52,59,52,58,52,52,52,58,54,58,52,52,52,59,57,58,52,52,51,58,60,59,52,52,52,59,63,58,52,52,52,58,65,59,52,52,52,59,66,60,52,52,52,60,65,59,52,52,52,60,65,60,52,52,52,59,63,59,52,52,52,59,63,59,52,52,52,59,61,59,52,52,52,59,60,59,52,52,52,60,60,59,52,52,52,60,60,59,52,52,52,58,57,59,52,52,52,59,58,59,52,52,52,58,57,59,52,52,52,58,57,58,52,52,52,57,56,58,52,52,52,58,57,59,52,52,52,58,57,58,52,52,52,59,57,59,52,52,52,58,57,58,52,52,52,58,58,59,52,52,52,59,58,59,right
53,52,51,54,30,54,52,52,51,57,47,57,52,52,51,58,54,58,52,52,52,58,57,59,52,52,52,58,59,57,52,52,52,60,66,60,52,52,52,59,65,60,52,52,52,60,65,59,52,52,52,59,63,59,52,52,52,59,62,59,52,52,52,59,61,59,52,52,52,59,60,59,52,52,52,59,58,59,52,52,52,59,58,58,52,52,52,59,58,59,52,52,52,59,57,59,52,52,52,59,58,59,52,52,52,58,57,59,52,52,52,59,57,59,52,52,52,59,57,59,52,52,52,58,57,59,52,52,52,58,56,58,52,52,52,58,57,59,52,52,52,59,58,59,52,52,52,58,58,59,52,52,52,59,59,59,52,52,52,59,59,59,52,52,52,59,59,59,52,52,52,59,59,59,52,52,52,59,59,59,right
53,52,51,60,31,55,52,52,51,58,47,57,52,52,51,58,54,58,52,52,51,59,59,58,52,52,52,59,60,58,52,52,52,59,66,59,52,52,52,60,66,60,52,52,53,60,65,59,52,52,53,59,63,59,52,52,52,58,62,59,52,52,52,58,60,58,52,52,52,60,60,59,52,52,52,59,58,58,52,52,52,60,58,59,52,52,52,60,56,58,52,52,52,60,57,59,52,52,52,58,56,59,52,52,52,58,57,59,52,52,52,58,56,58,52,52,52,58,57,59,52,52,52,58,56,58,52,52,52,58,58,59,52,52,52,59,58,58,52,52,52,59,59,59,52,52,52,59,59,59,52,52,52,59,59,59,52,52,52,59,59,59,52,52,52,59,59,59,52,52,52,59,59,58,52,52,52,59,59,59,right
53,52,54,58,52,59,52,52,53,57,52,59,52,52,52,57,53,59,52,52,52,58,53,59,52,52,52,58,53,59,52,52,52,58,54,58,52,52,52,59,56,58,52,52,52,60,58,58,52,52,52,59,61,59,52,52,52,59,64,59,52,52,52,60,66,59,52,52,52,59,66,60,52,52,52,59,66,59,52,52,52,59,65,59,52,52,53,58,63,58,52,52,52,59,61,58,52,52,52,59,60,58,52,52,52,59,60,59,52,52,52,59,58,59,52,52,52,60,59,58,52,52,52,59,58,59,52,52,52,59,57,59,52,52,52,59,57,59,52,52,52,58,57,59,52,52,52,58,55,59,52,52,52,58,56,59,52,52,52,58,56,59,52,52,52,58,57,59,52,52,52,58,58,59,52,52,52,59,58,58,right
53,52,51,60,24,52,53,52,51,57,44,58,52,52,51,60,56,59,52,52,52,58,58,59,52,52,52,59,59,57,52,52,52,59,67,61,52,52,52,59,67,60,52,52,53,58,64,59,52,52,52,59,63,59,52,52,53,58,63,58,52,52,52,59,60,58,52,52,52,59,60,59,52,52,52,59,58,58,52,52,52,60,58,59,52,52,52,60,57,58,52,52,52,59,57,60,52,52,52,59,56,58,52,52,52,58,56,60,52,52,52,58,57,58,52,52,52,58,56,59,52,52,52,58,57,58,52,52,52,58,57,59,52,52,52,58,58,59,52,52,52,59,58,59,52,52,52,59,59,59,52,52,52,59,59,59,52,52,52,59,59,59,52,52,52,59,59,59,52,52,52,59,59,59,52,52,52,59,59,59,right
53,52,54,59,54,60,53,52,53,57,51,58,52,52,53,57,51,58,52,52,52,58,52,58,52,52,52,58,53,59,52,52,52,58,53,58,52,52,51,59,56,58,52,52,51,59,59,59,52,52,51,59,62,59,52,52,52,59,65,59,52,52,52,59,67,59,52,52,52,59,67,60,52,52,52,60,66,59,52,52,53,60,65,59,52,52,52,60,62,59,52,52,53,59,60,59,52,52,52,60,59,59,52,52,52,58,58,59,52,52,52,59,59,59,52,52,52,59,58,59,52,52,52,59,58,58,52,52,52,59,57,59,52,52,52,59,56,58,52,52,52,58,55,59,52,52,52,58,56,58,52,52,52,58,56,59,52,52,52,58,57,58,52,52,52,59,58,59,52,52,52,59,59,59,52,52,52,59,59,59,right
53,52,51,54,31,55,53,52,51,58,48,57,52,52,51,58,55,58,52,52,52,58,58,59,52,52,52,59,59,58,52,52,52,60,66,59,52,52,52,59,65,60,52,52,52,60,64,59,52,52,52,59,63,59,52,52,52,59,62,59,52,52,53,59,61,59,52,52,52,59,60,59,52,52,52,59,59,59,52,52,52,59,58,59,52,52,52,59,58,59,52,52,52,59,57,59,52,52,52,59,58,59,52,52,52,58,57,59,52,52,52,58,57,59,52,52,52,59,56,59,52,52,52,58,56,58,52,52,52,58,57,59,52,52,52,58,58,58,52,52,52,58,58,59,52,52,52,59,58,59,52,52,52,59,59,59,52,52,52,59,59,59,52,52,52,59,59,59,52,52,52,59,59,59,52,52,52,59,59,59,right
53,52,51,57,30,55,53,52,51,57,47,58,52,52,51,59,55,59,52,52,52,58,58,59,52,52,52,59,60,58,52,52,52,59,66,59,52,52,52,60,66,60,52,52,53,59,64,59,52,52,52,59,62,58,52,52,53,58,62,59,52,52,52,59,60,58,52,52,52,58,60,59,52,52,52,59,58,58,52,52,52,59,59,60,52,52,52,60,58,58,52,52,52,59,58,61,52,52,52,60,58,58,52,52,52,58,58,60,52,52,52,59,57,58,52,52,52,58,56,59,52,52,52,58,57,58,52,52,52,58,56,59,52,52,52,58,57,58,52,52,52,58,57,58,52,52,52,59,58,59,52,52,52,58,58,59,52,52,52,59,59,59,52,52,52,59,58,59,52,52,52,59,58,59,52,52,52,59,57,59,right
53,52,51,53,43,57,52,52,51,57,50,58,52,52,51,57,53,58,52,52,51,58,56,58,52,52,51,59,58,58,52,52,52,60,63,59,52,52,52,60,65,60,52,52,52,60,65,59,52,52,52,59,65,59,52,52,52,60,64,59,52,52,52,59,62,59,52,52,52,58,61,59,52,52,52,58,61,59,52,52,52,59,60,59,52,52,52,59,60,59,52,52,52,59,59,59,52,52,52,60,58,59,52,52,52,59,58,59,52,52,52,59,57,59,52,52,52,58,56,59,52,52,52,58,56,58,52,52,52,58,56,59,52,52,52,58,56,58,52,52,52,58,57,59,52,52,52,58,58,58,52,52,52,59,58,58,52,52,52,59,58,59,52,52,52,59,59,59,52,52,52,59,59,59,52,52,52,59,59,59,right
53,52,51,59,39,56,52,52,51,57,51,58,52,52,51,60,56,58,52,52,52,59,58,59,52,52,52,59,60,58,52,52,52,59,64,59,52,52,52,59,64,59,52,52,52,58,63,59,52,52,52,59,63,59,52,52,52,58,61,58,52,52,52,59,61,59,52,52,52,59,60,59,52,52,52,59,60,59,52,52,52,59,59,59,52,52,52,61,60,59,52,52,52,60,57,59,52,52,52,60,58,59,52,52,52,58,56,59,52,52,52,58,56,59,52,52,52,57,55,58,52,52,52,58,56,59,52,52,52,58,56,58,52,52,52,58,58,59,52,52,52,59,58,58,52,52,52,59,59,59,52,52,52,59,59,59,52,52,52,59,59,59,52,52,52,59,59,59,52,52,52,59,59,59,52,52,52,59,59,59,right
53,52,51,57,35,57,52,52,51,58,49,58,52,52,51,58,55,59,52,52,52,58,57,59,52,52,52,59,59,59,52,52,52,59,65,59,52,52,52,59,65,59,52,52,52,59,64,59,52,52,52,59,63,59,52,52,53,59,63,58,52,52,52,59,61,59,52,52,53,59,60,59,52,52,52,59,58,58,52,52,53,59,58,59,52,52,52,58,56,59,52,52,52,59,57,59,52,52,52,59,56,58,52,52,52,59,57,59,52,52,52,58,56,58,52,52,52,58,57,59,52,52,52,58,57,58,52,52,52,58,58,59,52,52,52,59,58,58,52,52,52,59,58,59,52,52,52,59,59,59,52,52,52,59,59,59,52,52,52,59,59,59,52,52,52,59,59,59,52,52,52,59,59,59,52,52,52,59,59,59,right
53,52,51,66,31,56,52,52,51,60,47,57,52,52,51,58,55,58,52,52,52,59,59,58,52,52,52,58,60,58,52,52,52,57,66,58,52,52,52,58,67,60,52,52,52,59,66,60,52,52,52,58,63,59,52,52,52,59,62,58,52,52,52,60,60,60,52,52,53,60,59,59,52,52,52,60,57,58,52,52,52,60,56,58,52,52,52,59,56,59,52,52,52,59,56,59,52,52,52,58,56,58,52,52,52,58,56,59,52,52,52,58,57,59,52,52,52,58,57,58,52,52,52,58,57,59,52,52,52,59,58,58,52,52,52,59,59,59,52,52,52,59,59,59,52,52,52,59,59,59,52,52,52,59,59,59,52,52,52,59,59,59,52,52,52,59,59,59,52,52,52,59,59,59,52,52,52,59,59,59,right
53,52,51,58,32,57,52,52,51,58,46,57,52,52,51,60,55,59,52,52,51,58,59,59,52,52,52,59,60,59,52,52,52,59,67,59,52,52,52,59,68,59,52,52,52,58,64,59,52,52,53,59,63,58,52,52,53,59,61,58,52,52,52,60,60,58,52,52,52,60,59,59,52,52,52,60,58,59,52,52,52,60,57,59,52,52,53,59,57,60,52,52,52,59,56,59,52,52,52,58,56,59,52,52,52,58,55,58,52,52,52,58,56,59,52,52,52,58,56,58,52,52,52,58,58,59,52,52,52,59,58,58,52,52,52,59,59,59,52,52,52,59,59,59,52,52,52,59,59,59,52,52,52,59,59,59,52,52,52,59,59,59,52,52,52,59,59,59,52,52,52,59,59,59,52,52,52,59,59,59,right
53,52,54,59,52,60,53,52,53,58,50,59,52,52,52,58,52,59,52,52,52,59,52,59,52,52,52,59,53,59,52,52,52,60,54,57,52,52,52,59,57,58,52,52,52,57,59,58,52,52,52,58,61,59,52,52,52,59,63,59,52,52,52,57,65,60,52,52,52,59,65,58,52,52,52,61,66,60,52,52,52,59,64,59,52,52,53,58,64,58,52,52,52,58,62,57,52,52,52,59,61,59,52,52,52,59,59,58,52,52,52,59,59,59,52,52,52,60,58,58,52,52,52,59,58,60,52,52,52,59,57,59,52,52,52,59,56,59,52,52,52,59,55,59,52,52,52,58,56,60,52,52,52,58,56,59,52,52,52,58,56,59,52,52,52,58,58,58,52,52,52,58,58,59,52,52,52,58,58,59,right
53,52,54,57,48,60,52,52,53,58,49,59,52,52,52,59,51,59,52,52,52,59,52,58,52,52,52,58,52,59,52,52,51,58,55,58,52,52,51,60,59,58,52,52,52,58,62,59,52,52,52,58,65,58,52,52,52,59,67,59,52,52,52,60,68,59,52,52,52,58,66,59,52,52,52,60,65,59,52,52,52,59,63,59,52,52,53,59,62,58,52,52,53,59,60,59,52,52,53,59,58,58,52,52,53,59,57,60,52,52,53,59,55,58,52,52,52,58,54,59,52,52,52,58,55,58,52,52,52,58,56,59,52,52,52,58,56,58,52,52,52,58,57,58,52,52,52,59,58,59,52,52,52,59,58,58,52,52,52,59,59,58,52,52,52,59,59,59,52,52,52,59,59,59,52,52,52,59,59,59,right
53,52,53,57,44,60,53,52,53,59,48,58,52,52,52,58,50,58,52,52,52,57,51,58,52,52,52,58,52,59,52,52,51,59,56,58,52,52,51,58,60,59,52,52,51,59,64,59,52,52,52,60,66,60,52,52,52,60,67,59,52,52,52,59,67,60,52,52,52,59,65,59,52,52,52,60,63,59,52,52,53,59,62,58,52,52,52,58,61,58,52,52,52,59,60,58,52,52,52,59,59,59,52,52,52,59,58,58,52,52,52,60,57,59,52,52,52,60,56,59,52,52,52,58,56,59,52,52,52,58,55,59,52,52,52,58,55,59,52,52,52,58,56,59,52,52,52,58,57,59,52,52,52,58,58,58,52,52,52,59,59,59,52,52,52,59,59,59,52,52,52,59,59,59,52,52,52,59,59,59,right
53,52,54,58,53,60,53,52,53,57,51,59,52,52,53,57,52,59,52,52,52,58,52,59,52,52,52,59,53,59,52,52,52,58,53,58,52,52,51,59,56,58,52,52,51,60,59,58,52,52,52,58,62,59,52,52,52,59,63,58,52,52,52,60,66,60,52,52,52,59,66,58,52,52,52,58,66,59,52,52,52,60,66,59,52,52,52,58,65,59,52,52,53,59,64,58,52,52,53,59,62,58,52,52,53,60,60,59,52,52,53,61,58,59,52,52,53,60,57,60,52,52,53,59,55,58,52,52,52,59,55,59,52,52,52,58,55,59,52,52,52,57,54,58,52,52,52,58,56,59,52,52,52,58,57,59,52,52,52,58,58,59,52,52,52,59,59,59,52,52,52,59,59,59,52,52,52,59,59,59,right
53,52,54,57,50,60,52,52,53,57,51,59,52,52,52,58,51,59,52,52,52,59,52,59,52,52,52,59,53,59,52,52,52,59,54,58,52,52,52,59,57,58,52,52,51,58,60,58,52,52,52,58,63,58,52,52,52,60,64,59,52,52,52,59,66,60,52,52,52,59,66,58,52,52,52,60,66,60,52,52,52,60,64,60,52,52,53,59,63,59,52,52,53,59,62,59,52,52,53,59,60,59,52,52,53,59,59,59,52,52,52,58,58,59,52,52,52,57,57,59,52,52,52,59,56,58,52,52,52,59,56,58,52,52,52,58,55,59,52,52,52,59,55,58,52,52,52,59,56,59,52,52,52,58,57,59,52,52,52,58,58,59,52,52,52,59,59,59,52,52,52,59,59,59,52,52,52,59,59,59,right
53,52,54,57,51,60,53,52,53,58,50,59,52,52,52,58,51,59,52,52,52,59,51,59,52,52,52,59,52,58,52,52,52,58,55,58,52,52,52,59,58,58,52,52,52,59,61,58,52,52,52,58,63,58,52,52,52,58,66,59,52,52,52,59,66,59,52,52,52,59,66,59,52,52,52,59,65,59,52,52,52,59,65,60,52,52,53,59,62,59,52,52,53,60,61,59,52,52,53,60,60,59,52,52,53,58,59,59,52,52,52,59,57,58,52,52,52,59,57,59,52,52,52,58,55,59,52,52,52,58,55,58,52,52,52,59,55,59,52,52,52,58,56,58,52,52,52,58,57,59,52,52,52,59,58,59,52,52,52,58,58,59,52,52,52,59,59,59,52,52,52,59,59,59,52,52,52,59,59,59,right
53,52,54,57,50,59,52,52,53,57,51,59,52,52,52,59,51,59,52,52,52,59,52,58,52,52,52,58,53,58,52,52,52,58,55,58,52,52,52,59,57,58,52,52,52,58,60,59,52,52,52,58,63,59,52,52,52,59,65,59,52,52,52,61,66,60,52,52,52,60,66,59,52,52,52,59,65,59,52,52,52,60,64,59,52,52,52,58,62,59,52,52,52,59,61,59,52,52,52,59,61,59,52,52,52,58,60,59,52,52,52,59,58,59,52,52,52,60,58,58,52,52,52,59,57,59,52,52,52,59,56,58,52,52,52,59,56,59,52,52,52,58,57,59,52,52,52,58,56,59,52,52,52,58,56,58,52,52,52,58,57,59,52,52,52,59,58,59,52,52,52,58,58,59,52,52,52,59,59,59,right
53,52,54,58,55,59,52,52,53,57,51,58,52,52,53,58,51,58,52,52,52,58,51,58,52,52,52,58,52,59,52,52,52,58,52,58,52,52,51,59,56,59,52,52,51,59,62,59,52,52,51,59,66,59,52,52,52,60,68,59,52,52,52,60,69,59,52,52,53,60,69,59,52,52,53,59,65,58,52,52,53,59,62,58,52,52,53,59,61,58,52,52,52,59,59,58,52,52,52,58,57,59,52,52,52,59,57,59,52,52,52,60,57,59,52,52,52,58,57,59,52,52,52,58,58,59,52,52,52,59,57,59,52,52,52,58,57,59,52,52,52,58,57,59,52,52,52,59,57,59,52,52,52,58,57,58,52,52,52,58,58,59,52,52,52,58,58,58,52,52,52,59,59,59,52,52,52,59,58,59,right
53,52,51,53,24,55,53,52,51,58,42,56,52,52,51,61,53,58,52,52,51,58,58,58,52,52,52,58,59,58,52,52,52,60,68,59,52,52,52,59,68,61,52,52,53,58,66,59,52,52,53,60,63,59,52,52,52,59,62,59,52,52,53,59,61,59,52,52,52,59,59,58,52,52,52,58,59,58,52,52,52,59,59,59,52,52,52,59,57,59,52,52,52,59,57,58,52,52,52,59,57,59,52,52,52,59,56,59,52,52,52,58,56,59,52,52,52,58,57,59,52,52,52,58,57,59,52,52,52,58,58,59,52,52,52,58,58,58,52,52,52,59,58,59,52,52,52,59,58,59,52,52,52,59,59,59,52,52,52,59,59,59,52,52,52,59,59,59,52,52,52,59,59,59,52,52,52,59,59,59,right
53,52,51,68,23,54,53,52,51,59,44,56,52,52,51,58,56,57,52,52,52,59,59,59,52,52,52,59,60,58,52,52,52,57,68,59,52,52,52,58,68,60,52,52,52,59,65,60,52,52,52,59,64,59,52,52,53,59,62,59,52,52,53,60,60,59,52,52,53,59,59,59,52,52,52,59,56,58,52,52,52,59,56,59,52,52,52,58,56,58,52,52,52,58,57,58,52,52,52,59,56,58,52,52,52,59,57,59,52,52,52,58,56,59,52,52,52,59,57,59,52,52,52,58,57,58,52,52,52,59,58,59,52,52,52,59,58,58,52,52,52,59,59,59,52,52,52,59,59,59,52,52,52,59,59,59,52,52,52,59,59,59,52,52,52,59,59,58,52,52,52,59,59,59,52,52,52,59,59,59,right
52,52,54,58,52,58,52,52,53,58,51,58,52,52,52,58,52,58,52,52,52,58,53,58,52,52,52,57,54,58,52,52,52,59,55,58,52,52,52,59,56,59,52,52,51,58,59,59,52,52,52,59,62,59,52,52,52,59,64,59,52,52,52,59,65,59,52,52,52,59,66,60,52,52,52,60,65,59,52,52,52,60,63,59,52,52,52,60,62,59,52,52,53,58,62,59,52,52,52,58,60,59,52,52,52,59,59,59,52,52,52,59,58,59,52,52,52,59,57,59,52,52,52,60,57,58,52,52,52,59,57,59,52,52,52,59,58,59,52,52,52,58,57,58,52,52,52,59,57,59,52,52,52,58,56,59,52,52,52,58,57,59,52,52,52,58,57,59,52,52,52,58,57,59,52,52,52,58,58,59,right
52,52,54,57,52,59,52,52,53,56,51,59,52,52,52,57,52,59,52,52,52,58,53,58,52,52,52,58,54,59,52,52,52,59,55,58,52,52,52,59,57,59,52,52,52,59,58,58,52,52,52,59,62,59,52,52,52,59,63,59,52,52,52,59,64,59,52,52,52,60,66,59,52,52,52,60,66,59,52,52,52,59,64,59,52,52,52,59,63,59,52,52,52,59,63,59,52,52,53,59,60,59,52,52,52,59,60,59,52,52,53,58,58,59,52,52,52,59,58,59,52,52,52,58,57,59,52,52,52,59,57,59,52,52,52,58,56,59,52,52,52,59,56,59,52,52,52,58,55,58,52,52,52,59,56,59,52,52,52,58,57,59,52,52,52,58,58,58,52,52,52,58,58,59,52,52,52,59,59,59,right
52,52,54,59,51,59,52,52,53,58,49,59,52,52,53,59,50,58,52,52,52,58,51,58,52,52,52,58,52,58,52,52,52,57,54,58,52,52,51,59,57,59,52,52,51,59,61,60,52,52,51,59,64,59,52,52,52,60,66,59,52,52,52,61,67,60,52,52,52,59,67,60,52,52,52,59,66,58,52,52,52,60,65,59,52,52,53,60,64,58,52,52,53,59,60,59,52,52,53,59,59,59,52,52,53,58,57,59,52,52,52,59,57,59,52,52,52,58,55,59,52,52,52,58,57,59,52,52,52,59,56,58,52,52,52,59,57,59,52,52,52,59,56,58,52,52,52,58,57,59,52,52,52,59,57,58,52,52,52,58,58,59,52,52,52,59,58,59,52,52,52,59,58,59,52,52,52,59,59,59,right
52,52,54,57,54,59,52,52,53,56,51,59,52,52,52,57,53,59,52,52,52,59,53,59,52,52,52,58,54,59,52,52,52,59,53,58,52,52,51,60,55,58,52,52,51,60,59,58,52,52,52,59,63,60,52,52,52,60,64,59,52,52,52,59,68,59,52,52,52,59,68,59,52,52,52,58,65,59,52,52,53,59,64,58,52,52,53,59,62,59,52,52,52,58,60,58,52,52,52,61,60,59,52,52,52,60,58,59,52,52,52,58,57,60,52,52,52,59,57,59,52,52,52,59,57,59,52,52,52,57,56,59,52,52,52,58,58,59,52,52,52,59,57,58,52,52,52,58,57,59,52,52,52,58,57,59,52,52,52,59,57,59,52,52,52,58,58,59,52,52,52,59,58,59,52,52,52,59,58,58,right
53,52,54,55,49,58,52,52,53,58,51,58,52,52,53,58,51,58,52,52,52,58,51,58,52,52,52,57,52,58,52,52,52,58,54,58,52,52,51,60,57,59,52,52,51,58,63,58,52,52,52,59,66,59,52,52,52,61,67,60,52,52,52,60,69,59,52,52,53,59,68,59,52,52,53,60,64,60,52,52,53,60,62,60,52,52,53,59,62,59,52,52,53,59,59,59,52,52,53,59,58,59,52,52,52,59,56,58,52,52,52,59,56,59,52,52,52,58,55,58,52,52,52,59,57,59,52,52,52,58,56,58,52,52,52,58,57,59,52,52,52,58,57,58,52,52,52,58,58,59,52,52,52,58,58,59,52,52,52,58,58,58,52,52,52,59,58,58,52,52,52,59,59,59,52,52,52,59,59,59,right
53,52,53,54,32,57,53,52,52,56,43,59,53,52,52,56,48,59,52,52,52,59,50,58,52,52,51,60,56,58,52,52,51,59,64,59,52,52,52,59,66,59,52,52,52,60,67,58,52,52,52,59,69,60,52,52,53,59,66,59,52,52,53,59,63,59,52,52,53,60,61,58,52,52,53,59,61,59,52,52,52,58,59,58,52,52,52,58,58,60,52,52,52,59,57,58,52,52,52,59,56,59,52,52,52,58,55,58,52,52,52,59,55,59,52,52,52,58,55,58,52,52,52,58,56,59,52,52,52,58,58,59,52,52,52,59,58,59,52,52,52,59,59,59,52,52,52,59,59,58,52,52,52,59,59,59,52,52,52,59,59,59,52,52,52,59,59,59,52,52,52,59,59,59,52,52,52,59,59,59,right
53,53,53,61,57,62,53,53,52,62,57,62,52,53,52,61,57,63,52,52,52,62,56,64,52,52,52,62,57,64,52,52,52,62,57,62,52,51,52,60,58,62,52,51,52,58,59,60,52,51,52,57,60,59,51,51,52,56,61,55,52,51,52,55,61,53,52,52,52,54,61,53,52,52,52,56,60,52,52,53,52,56,60,53,52,53,52,56,60,54,52,53,52,57,59,56,52,53,52,59,59,58,52,53,52,59,59,59,52,52,52,59,58,60,52,52,52,59,59,60,52,52,52,60,58,60,52,52,52,59,58,60,52,52,52,60,58,60,52,52,52,59,58,61,52,52,52,60,58,60,52,52,52,59,58,60,52,52,52,59,58,60,52,52,52,59,59,60,52,52,52,59,59,59,52,52,52,59,59,59,up
52,54,52,63,58,60,52,53,52,62,57,64,52,53,52,62,57,65,52,53,52,62,57,65,52,52,52,61,57,64,52,51,52,62,57,64,52,51,52,61,58,61,52,51,52,57,59,58,52,51,52,56,60,55,52,51,52,56,61,52,52,52,52,54,61,51,52,52,52,55,61,52,52,53,52,56,61,53,52,53,52,57,60,55,52,53,52,58,59,57,52,53,52,58,59,57,52,53,52,59,58,59,52,53,52,60,58,59,52,53,52,60,58,60,52,52,52,60,58,61,52,52,52,60,58,61,52,52,52,60,58,61,52,52,52,59,58,61,52,52,52,59,58,60,52,52,52,59,58,60,52,52,52,59,59,60,52,52,52,59,59,59,52,52,52,59,59,59,52,52,52,59,59,58,52,52,52,58,59,59,up
52,54,52,60,58,60,52,54,53,61,58,64,52,53,52,61,57,65,52,53,52,61,57,65,52,52,52,62,57,63,52,51,52,62,57,64,52,51,52,60,58,60,52,51,52,58,59,58,52,51,52,57,60,55,52,51,52,56,61,52,52,52,52,54,62,52,52,52,52,54,62,52,52,53,52,57,61,54,52,53,52,57,60,55,52,53,52,58,59,57,52,53,52,59,58,58,52,53,52,61,58,59,52,52,52,59,58,60,52,52,52,60,58,61,52,52,52,59,58,61,52,52,52,59,58,60,52,52,52,59,58,61,52,52,52,59,58,60,52,52,52,59,59,60,52,52,52,59,58,59,52,52,52,59,58,59,52,52,52,59,59,59,52,52,52,59,59,59,52,52,52,59,59,59,52,52,52,59,59,59,up
52,54,52,59,59,60,52,53,52,61,58,63,52,53,52,60,57,64,52,53,52,61,57,64,52,52,52,61,57,63,52,52,52,62,57,63,52,51,52,60,57,61,52,51,52,59,59,58,52,51,52,58,60,56,52,51,52,56,61,54,52,52,52,55,61,53,52,52,52,55,61,53,52,53,52,57,60,53,52,53,52,57,60,56,52,53,52,58,59,56,52,53,52,59,59,58,52,53,52,60,58,59,52,52,52,59,58,60,52,52,52,59,58,60,52,52,52,59,58,60,52,52,52,59,58,60,52,52,52,59,58,61,52,52,52,59,58,60,52,52,52,59,58,60,52,52,52,59,58,60,52,52,52,59,58,59,52,52,52,59,59,59,52,52,52,59,59,59,52,52,52,59,59,59,52,52,52,59,59,59,up
52,54,52,58,59,62,52,53,52,61,59,62,52,53,52,60,58,63,52,53,52,61,57,63,52,52,52,61,57,63,52,52,52,61,57,62,52,51,52,60,57,61,52,51,52,59,59,59,52,51,52,57,59,56,52,51,52,57,60,55,52,52,52,55,61,53,52,52,52,55,61,52,52,53,52,56,60,53,52,53,52,57,60,55,52,53,52,58,60,56,52,53,52,58,59,58,52,53,52,59,59,58,52,52,52,59,58,60,52,52,52,59,58,60,52,52,52,59,58,60,52,52,52,59,58,60,52,52,52,59,58,60,52,52,52,60,58,60,52,52,52,60,58,60,52,52,52,59,58,60,52,52,52,59,58,60,52,52,52,59,59,59,52,52,52,59,59,59,52,52,52,59,59,59,52,52,52,59,59,59,up
52,54,53,68,52,80,52,52,52,64,55,70,52,52,52,62,56,66,52,52,52,61,57,63,52,52,52,60,58,65,52,51,52,58,60,56,52,51,52,57,60,55,52,52,52,56,61,53,52,52,52,56,61,53,52,52,52,56,61,53,52,53,52,57,60,54,52,53,52,57,60,56,52,53,52,58,59,57,52,53,52,59,59,58,52,53,52,60,58,60,52,52,52,59,58,61,52,52,52,59,58,60,52,52,52,59,58,61,52,52,52,59,58,60,52,52,52,59,58,61,52,52,52,59,58,60,52,52,52,59,58,60,52,52,52,59,58,59,52,52,52,59,58,59,52,52,52,59,59,59,52,52,52,59,59,59,52,52,52,59,59,59,52,52,52,59,59,59,52,52,52,59,59,59,52,52,52,59,59,59,up
52,54,53,60,57,64,52,53,53,59,57,65,52,53,52,60,57,64,52,53,52,61,57,64,52,52,52,61,57,64,52,52,52,61,58,63,52,51,52,61,58,61,52,51,52,60,59,58,52,51,52,57,60,56,52,51,52,56,60,53,52,52,52,54,61,52,52,52,52,54,61,51,52,53,52,56,60,53,52,53,52,57,60,54,52,53,52,58,59,57,52,53,52,59,59,58,52,53,52,59,59,59,52,53,52,59,59,59,52,52,52,59,58,60,52,52,52,60,59,60,52,52,52,60,58,61,52,52,52,60,58,61,52,52,52,60,58,61,52,52,52,60,58,61,52,52,52,59,58,60,52,52,52,59,59,60,52,52,52,59,58,59,52,52,52,59,59,59,52,52,52,59,59,58,52,52,52,59,59,59,up
52,54,53,58,58,60,52,53,53,61,57,63,52,53,52,60,57,64,52,53,52,61,57,64,52,52,52,61,57,63,52,52,52,61,57,63,52,51,52,60,59,62,52,51,52,60,59,60,52,51,52,59,60,57,52,51,52,57,60,54,52,52,52,57,60,54,52,52,52,56,60,52,52,52,52,55,60,53,52,53,52,56,60,54,52,53,52,57,59,55,52,53,52,58,59,57,52,53,52,58,59,58,52,53,52,59,59,58,52,53,52,59,59,59,52,53,52,59,58,59,52,52,52,59,58,61,52,52,52,60,58,60,52,52,52,60,58,61,52,52,52,60,58,61,52,52,52,60,58,60,52,52,52,59,58,60,52,52,52,59,58,60,52,52,52,59,59,59,52,52,52,59,59,59,52,52,52,59,59,59,up
52,54,53,58,59,58,52,53,53,61,58,62,52,53,52,61,57,63,52,53,52,61,57,64,52,52,52,61,57,62,52,52,52,62,57,64,52,51,52,60,58,62,52,51,52,58,59,59,52,51,52,58,59,56,52,51,52,56,60,54,52,52,52,55,61,52,52,52,52,56,61,53,52,52,52,56,61,52,52,53,52,56,61,54,52,53,52,57,60,55,52,53,52,58,59,57,52,53,52,59,58,58,52,53,52,60,58,59,52,53,52,60,58,61,52,52,52,60,58,61,52,52,52,60,58,61,52,52,52,60,58,61,52,52,52,59,58,61,52,52,52,59,58,60,52,52,52,59,59,60,52,52,52,59,58,60,52,52,52,59,59,59,52,52,52,59,59,59,52,52,52,59,59,59,52,52,52,59,59,59,up
52,54,53,61,59,59,52,53,53,59,58,63,52,53,52,61,57,64,52,52,52,61,57,64,52,52,52,61,57,62,52,52,52,61,57,64,52,51,52,60,58,61,52,51,52,59,59,58,52,51,52,57,60,56,52,51,52,57,60,54,52,52,52,55,61,53,52,52,52,56,60,53,52,53,52,56,60,53,52,53,52,57,60,55,52,53,52,57,60,55,52,53,52,58,59,57,52,53,52,59,59,58,52,53,52,59,58,60,52,53,52,59,58,60,52,52,52,60,58,61,52,52,52,60,58,61,52,52,52,60,58,61,52,52,52,60,59,61,52,52,52,60,59,60,52,52,52,59,59,60,52,52,52,59,59,59,52,52,52,59,59,59,52,52,52,59,59,59,52,52,52,59,59,59,52,52,52,59,59,59,up
52,54,53,62,58,62,52,53,52,61,58,64,52,53,52,61,57,64,52,52,52,61,57,64,52,52,52,61,58,63,52,52,52,61,57,62,52,51,52,60,58,60,52,51,52,59,59,58,52,51,52,57,60,56,52,51,52,57,60,53,52,52,52,55,61,53,52,52,52,55,61,52,52,53,52,56,60,53,52,53,52,57,60,54,52,53,52,58,59,56,52,53,52,59,59,58,52,53,52,60,58,59,52,53,52,59,58,60,52,52,52,60,58,61,52,52,52,60,58,61,52,52,52,59,58,61,52,52,52,59,58,62,52,52,52,60,58,61,52,52,52,59,58,60,52,52,52,59,59,60,52,52,52,59,59,59,52,52,52,59,59,59,52,52,52,59,59,59,52,52,52,59,59,59,52,52,52,59,59,58,up
52,54,53,58,59,60,52,53,52,60,58,62,52,53,52,60,58,63,52,53,52,61,58,63,52,52,52,60,58,62,52,52,52,61,58,63,52,52,52,61,58,62,52,51,52,61,58,61,52,51,52,58,59,58,52,51,52,57,60,56,52,51,52,57,60,54,52,52,52,55,60,52,52,52,52,55,60,52,52,53,52,57,60,52,52,53,52,57,60,53,52,53,52,57,59,56,52,53,52,58,59,57,52,53,52,59,59,59,52,53,52,59,59,60,52,52,52,60,58,61,52,52,52,60,58,61,52,52,52,60,58,61,52,52,52,59,58,61,52,52,52,60,58,61,52,52,52,59,58,61,52,52,52,59,58,60,52,52,52,59,59,60,52,52,52,59,58,59,52,52,52,59,59,59,52,52,52,59,59,59,up
52,54,53,58,57,63,52,53,52,61,58,63,52,53,52,61,58,63,52,53,52,61,58,64,52,52,52,61,58,64,52,52,52,62,58,63,52,51,52,61,57,61,52,51,52,59,58,60,52,51,52,58,59,56,52,51,52,57,60,55,52,51,52,55,61,52,52,52,52,54,61,52,52,53,52,55,61,52,52,53,52,56,60,54,52,53,52,57,60,56,52,53,52,58,59,57,52,53,52,59,59,59,52,53,52,60,58,59,52,52,52,59,58,61,52,52,52,60,58,59,52,52,52,59,58,60,52,52,52,60,58,60,52,52,52,59,59,61,52,52,52,60,58,59,52,52,52,59,59,61,52,52,52,60,58,60,52,52,52,59,59,60,52,52,52,59,58,59,52,52,52,59,59,59,52,52,52,59,59,59,up
52,54,52,59,60,60,52,53,53,60,58,63,52,53,52,60,58,63,52,53,52,61,58,63,52,52,52,61,58,62,52,52,52,61,57,64,52,51,52,61,58,61,52,51,52,60,58,60,52,51,52,58,59,57,52,51,52,57,60,55,52,51,52,55,61,52,52,52,52,54,61,52,52,52,52,55,60,52,52,53,52,56,60,53,52,53,52,57,59,55,52,53,52,58,59,58,52,53,52,61,58,58,52,53,52,59,58,61,52,52,52,60,58,60,52,52,52,59,58,61,52,52,52,60,57,60,52,52,52,58,58,61,52,52,52,60,59,60,52,52,52,59,59,61,52,52,52,60,59,60,52,52,52,59,59,60,52,52,52,59,59,60,52,52,52,59,59,59,52,52,52,59,59,59,52,52,52,59,59,59,up
52,54,53,59,59,61,52,53,53,61,58,63,52,53,52,61,58,64,52,53,52,61,58,64,52,52,52,61,58,63,52,52,52,60,57,63,52,51,52,60,58,62,52,51,52,59,59,60,52,51,52,58,59,58,52,51,52,57,60,55,52,51,52,57,60,53,52,52,52,55,61,52,52,52,52,55,60,52,52,53,52,56,60,53,52,53,52,57,59,54,52,53,52,58,59,57,52,53,52,59,59,58,52,53,52,60,58,60,52,53,52,59,59,60,52,52,52,60,58,61,52,52,52,60,58,61,52,52,52,59,58,61,52,52,52,59,58,61,52,52,52,59,58,60,52,52,52,59,58,60,52,52,52,59,58,60,52,52,52,59,58,59,52,52,52,59,59,59,52,52,52,59,59,59,52,52,52,59,59,59,up
52,54,53,58,58,61,52,53,52,60,58,62,52,53,52,61,58,63,52,53,52,61,58,63,52,52,52,61,58,63,52,52,52,61,58,63,52,51,52,61,58,62,52,51,52,59,58,59,52,51,52,58,59,57,52,51,52,57,60,55,52,52,52,56,60,52,52,52,52,55,61,52,52,53,52,55,61,53,52,53,52,57,60,54,52,53,52,57,60,55,52,53,52,57,59,58,52,53,52,58,58,59,52,53,52,59,58,59,52,52,52,59,58,60,52,52,52,60,57,61,52,52,52,60,58,61,52,52,52,60,58,61,52,52,52,60,58,61,52,52,52,60,58,60,52,52,52,59,59,60,52,52,52,59,59,60,52,52,52,59,59,59,52,52,52,59,59,58,52,52,52,59,59,59,52,52,52,59,59,58,up
52,54,53,59,58,63,52,53,52,60,57,63,52,53,52,61,57,63,52,53,52,61,57,64,52,52,52,61,57,64,52,52,52,61,57,63,52,51,52,60,58,61,52,51,52,58,59,58,52,51,52,57,60,56,52,51,52,55,61,54,52,52,52,55,61,51,52,52,52,55,60,52,52,53,52,57,60,52,52,53,52,57,60,55,52,53,52,58,59,57,52,53,52,59,59,58,52,53,52,60,59,60,52,53,52,59,58,61,52,52,52,60,58,62,52,52,52,60,58,61,52,52,52,59,58,62,52,52,52,60,58,61,52,52,52,59,58,60,52,52,52,59,59,60,52,52,52,59,59,59,52,52,52,59,59,59,52,52,52,59,59,59,52,52,52,59,59,58,52,52,52,59,59,59,52,52,52,59,59,59,up
52,54,53,60,59,61,52,53,53,60,58,63,52,53,52,60,58,64,52,53,52,61,58,64,52,52,52,61,58,63,52,52,52,62,57,63,52,51,52,60,58,60,52,51,52,58,59,58,52,51,52,57,59,56,52,51,52,56,60,54,52,52,52,55,61,52,52,52,52,55,60,52,52,53,52,56,60,53,52,53,52,57,59,55,52,53,52,57,59,57,52,53,52,59,58,58,52,53,52,60,58,59,52,52,52,60,58,60,52,52,52,60,58,61,52,52,52,60,58,60,52,52,52,59,58,61,52,52,52,60,58,60,52,52,52,59,58,60,52,52,52,59,58,60,52,52,52,59,59,60,52,52,52,59,59,59,52,52,52,59,59,59,52,52,52,59,59,59,52,52,52,59,59,59,52,52,52,59,59,59,up
52,54,53,61,60,59,52,53,53,61,58,63,52,53,52,61,58,64,52,53,52,62,57,64,52,52,52,62,57,62,52,52,52,61,57,64,52,51,52,60,58,61,52,51,52,58,59,58,52,51,52,56,59,55,52,51,52,55,61,53,52,52,52,55,61,52,52,52,52,55,61,51,52,53,52,56,61,53,52,53,52,57,60,55,52,53,52,58,59,57,52,53,52,58,58,58,52,53,52,60,58,60,52,53,52,60,58,61,52,52,52,60,58,62,52,52,52,60,58,61,52,52,52,60,58,61,52,52,52,60,58,61,52,52,52,59,58,61,52,52,52,59,59,60,52,52,52,59,59,59,52,52,52,59,59,59,52,52,52,59,59,58,52,52,52,59,59,59,52,52,52,59,59,58,52,52,52,59,59,58,up
52,54,52,59,60,60,52,53,53,61,58,62,52,53,52,61,58,64,52,53,52,61,58,64,52,52,52,62,57,63,52,51,52,61,57,63,52,51,52,59,58,61,52,51,52,58,59,58,52,51,52,57,60,55,52,51,52,55,61,53,52,52,52,55,61,51,52,53,52,55,60,52,52,53,52,56,60,52,52,53,52,57,59,55,52,53,52,58,58,57,52,53,52,59,58,59,52,53,52,60,58,60,52,52,52,60,58,62,52,52,52,60,58,62,52,52,52,60,58,62,52,52,52,60,58,61,52,52,52,59,58,61,52,52,52,59,59,60,52,52,52,59,59,59,52,52,52,59,59,59,52,52,52,59,59,58,52,52,52,59,59,59,52,52,52,59,59,59,52,52,52,59,59,59,52,52,52,59,59,59,up
52,54,53,58,59,61,52,53,53,61,58,63,52,53,52,62,57,64,52,53,52,62,57,64,52,52,52,61,57,63,52,52,52,61,58,63,52,51,52,60,58,61,52,51,52,58,59,58,52,51,52,57,60,55,52,51,52,56,61,53,52,52,52,55,61,51,52,52,52,54,61,52,52,53,52,56,60,52,52,53,52,57,60,55,52,53,52,58,59,56,52,53,52,59,58,58,52,53,52,60,58,60,52,52,52,60,58,62,52,52,52,60,58,61,52,52,52,60,58,62,52,52,52,60,58,61,52,52,52,59,58,61,52,52,52,59,58,60,52,52,52,59,59,60,52,52,52,59,59,59,52,52,52,59,59,59,52,52,52,59,59,59,52,52,52,59,59,59,52,52,52,59,59,59,52,52,52,59,59,59,up
53,54,52,70,55,81,52,52,52,65,56,70,52,52,52,62,57,66,52,51,52,60,58,63,52,51,52,60,58,64,52,51,52,56,59,55,52,51,52,56,60,53,52,52,52,55,61,53,52,52,52,56,60,52,52,53,52,56,60,54,52,53,52,57,59,55,52,53,52,58,59,57,52,53,52,59,58,58,52,53,52,59,58,59,52,52,52,59,58,60,52,52,52,60,58,61,52,52,52,60,58,60,52,52,52,59,58,61,52,52,52,60,59,61,52,52,52,59,58,60,52,52,52,59,59,60,52,52,52,59,59,59,52,52,52,59,59,59,52,52,52,59,59,59,52,52,52,59,59,59,52,52,52,59,59,59,52,52,52,59,59,59,52,52,52,59,59,59,52,52,52,59,59,59,52,52,52,59,59,59,up
52,54,53,60,60,62,52,53,53,61,58,63,52,53,52,62,58,64,52,53,52,63,58,64,52,52,52,62,57,64,52,51,52,61,57,62,52,51,52,59,58,61,52,51,52,57,58,58,52,51,52,56,60,55,52,51,52,55,61,53,52,52,52,55,61,52,52,53,52,56,61,52,52,53,52,56,60,54,52,53,52,57,59,55,52,53,52,57,59,57,52,53,52,59,58,59,52,53,52,60,58,60,52,53,52,60,58,61,52,52,52,60,58,61,52,52,52,60,58,61,52,52,52,60,58,61,52,52,52,60,58,61,52,52,52,59,59,60,52,52,52,59,59,60,52,52,52,59,58,59,52,52,52,59,59,59,52,52,52,59,59,59,52,52,52,59,59,59,52,52,52,59,59,58,52,52,52,59,59,59,up
52,54,53,57,59,61,52,53,53,61,58,62,52,53,52,61,58,63,52,53,52,62,57,63,52,52,52,61,57,62,52,52,52,61,57,62,52,51,52,59,58,61,52,51,52,58,59,59,52,51,52,56,60,56,52,51,52,56,60,54,52,52,52,56,60,53,52,52,52,56,60,53,52,53,52,57,60,54,52,53,52,57,59,55,52,53,52,58,59,57,52,53,52,59,58,58,52,53,52,59,58,60,52,52,52,59,58,60,52,52,52,59,58,61,52,52,52,60,58,60,52,52,52,59,59,62,52,52,52,60,58,60,52,52,52,59,59,61,52,52,52,60,59,60,52,52,52,59,59,59,52,52,52,59,59,59,52,52,52,59,59,59,52,52,52,59,59,58,52,52,52,59,59,59,52,52,52,59,59,59,up
52,54,52,57,59,61,52,53,52,59,59,64,52,53,52,61,58,64,52,53,52,61,58,64,52,52,52,61,58,62,52,52,52,62,58,64,52,51,52,60,58,60,52,51,52,59,59,59,52,51,52,57,59,55,52,51,52,55,60,53,52,52,52,55,60,51,52,52,52,55,60,52,52,53,52,57,60,51,52,53,52,57,59,54,52,53,52,58,59,56,52,53,52,59,58,59,52,53,52,60,58,60,52,53,52,59,58,62,52,52,52,61,58,63,52,52,52,60,58,62,52,52,52,60,58,62,52,52,52,59,59,61,52,52,52,60,58,60,52,52,52,59,59,59,52,52,52,59,59,59,52,52,52,59,59,59,52,52,52,59,59,58,52,52,52,58,59,58,52,52,52,59,59,58,52,52,52,58,59,59,up
52,54,52,60,59,60,52,53,53,59,58,63,52,53,52,61,58,62,52,53,52,61,58,63,52,52,52,61,57,62,52,52,52,61,58,64,52,51,52,61,58,61,52,51,52,59,58,59,52,51,52,58,59,57,52,51,52,56,60,54,52,52,52,55,60,52,52,52,52,55,60,52,52,53,52,56,60,52,52,53,52,57,60,54,52,53,52,57,59,56,52,53,52,59,59,58,52,53,52,59,59,60,52,52,52,60,58,61,52,52,52,60,58,61,52,52,52,61,58,61,52,52,52,59,58,61,52,52,52,60,58,60,52,52,52,59,59,60,52,52,52,59,58,59,52,52,52,59,58,59,52,52,52,59,59,59,52,52,52,59,59,59,52,52,52,59,59,59,52,52,52,59,59,59,52,52,52,59,59,59,up
52,54,52,61,58,60,52,53,53,60,58,62,52,53,52,61,58,63,52,53,52,61,58,64,52,52,52,61,58,63,52,52,52,61,58,63,52,51,52,60,58,61,52,51,52,59,59,59,52,51,52,58,59,56,52,51,52,56,60,54,52,52,52,55,61,52,52,52,52,55,61,52,52,53,52,56,61,53,52,53,52,57,60,54,52,53,52,57,59,56,52,53,52,58,59,58,52,53,52,59,58,60,52,53,52,60,58,60,52,52,52,59,58,62,52,52,52,60,58,61,52,52,52,60,58,61,52,52,52,60,58,61,52,52,52,59,58,60,52,52,52,59,59,59,52,52,52,59,59,59,52,52,52,59,59,59,52,52,52,59,59,59,52,52,52,59,59,59,52,52,52,59,59,59,52,52,52,59,59,59,up
52,54,53,59,60,63,52,53,53,61,58,63,52,53,52,61,58,64,52,53,52,61,58,64,52,52,52,62,57,64,52,51,52,61,57,62,52,51,52,58,59,61,52,51,52,58,59,57,52,51,52,57,60,55,52,51,52,55,61,53,52,52,52,55,60,51,52,53,52,56,59,51,52,53,52,56,59,53,52,53,52,57,59,56,52,53,52,58,59,57,52,53,52,59,59,59,52,53,52,60,59,60,52,52,52,60,59,61,52,52,52,60,58,61,52,52,52,60,59,61,52,52,52,60,59,61,52,52,52,59,59,60,52,52,52,59,59,60,52,52,52,59,59,59,52,52,52,59,59,59,52,52,52,59,59,59,52,52,52,59,59,59,52,52,52,59,59,59,52,52,52,59,59,59,52,52,52,59,59,59,up
52,54,52,58,59,61,52,53,53,60,58,63,52,53,52,61,58,64,52,53,52,61,58,65,52,52,52,61,58,63,52,52,52,61,57,64,52,51,52,60,58,61,52,51,52,59,59,58,52,51,52,57,60,55,52,51,52,55,60,53,52,52,52,55,60,51,52,52,52,55,60,50,52,53,52,56,60,52,52,53,52,57,59,54,52,53,52,57,59,56,52,53,52,59,58,58,52,53,52,59,59,61,52,53,52,61,58,62,52,52,52,60,58,63,52,52,52,61,58,62,52,52,52,60,58,62,52,52,52,60,58,60,52,52,52,59,59,60,52,52,52,59,59,59,52,52,52,58,59,59,52,52,52,59,59,59,52,52,52,59,59,59,52,52,52,59,59,59,52,52,52,59,59,58,52,52,52,59,59,59,up
53,53,52,74,53,87,53,52,52,67,55,74,52,51,52,62,57,67,52,51,52,60,57,63,52,51,52,59,58,65,52,51,52,55,60,53,52,52,52,54,61,50,52,52,52,55,60,50,52,53,52,56,60,51,52,53,52,57,61,53,52,53,52,58,59,56,52,53,52,59,58,58,52,53,52,60,59,60,52,53,52,60,58,62,52,52,52,60,57,62,52,52,52,60,58,63,52,52,52,60,58,62,52,52,52,60,58,61,52,52,52,59,58,61,52,52,52,59,59,60,52,52,52,59,59,59,52,52,52,59,59,59,52,52,52,59,59,59,52,52,52,59,59,59,52,52,52,59,59,59,52,52,52,59,59,59,52,52,52,59,59,59,52,52,52,59,59,59,52,52,52,59,59,59,52,52,52,59,59,59,up
53,54,52,73,51,87,53,52,52,66,55,74,52,51,52,63,56,67,52,51,52,60,58,63,52,51,52,59,58,65,52,51,52,55,61,54,52,51,52,55,61,51,52,52,52,55,61,50,52,53,52,55,60,51,52,53,52,57,60,54,52,53,52,57,59,55,52,53,52,58,59,58,52,53,52,59,59,59,52,53,52,61,58,61,52,52,52,60,58,62,52,52,52,60,58,62,52,52,52,60,58,62,52,52,52,60,58,61,52,52,52,59,58,61,52,52,52,59,58,60,52,52,52,59,59,60,52,52,52,59,59,59,52,52,52,59,59,59,52,52,52,59,59,59,52,52,52,59,59,59,52,52,52,59,59,59,52,52,52,59,59,59,52,52,52,59,59,59,52,52,52,59,59,59,52,52,52,59,59,59,up
53,53,52,76,51,91,53,51,52,68,54,74,52,51,52,61,57,66,52,51,52,60,58,61,52,51,52,59,59,66,52,51,52,55,61,53,52,52,52,54,62,50,52,52,52,55,60,51,52,53,52,56,60,52,52,53,52,56,60,54,52,53,52,57,59,56,52,53,52,58,59,57,52,53,52,60,59,59,52,53,52,60,58,61,52,53,52,61,58,63,52,52,52,61,58,63,52,52,52,61,58,63,52,52,52,60,58,61,52,52,52,60,58,62,52,52,52,59,59,60,52,52,52,59,58,58,52,52,52,58,59,59,52,52,52,59,59,58,52,52,52,58,59,58,52,52,52,59,59,58,52,52,52,59,59,59,52,52,52,59,59,59,52,52,52,59,59,59,52,52,52,59,59,59,52,52,52,59,59,59,up
53,49,51,68,54,83,52,50,52,62,57,66,52,51,52,59,58,61,52,51,52,58,59,59,52,51,52,58,59,64,52,52,52,55,60,52,52,53,52,56,60,53,52,53,52,58,60,54,52,53,52,57,60,55,52,53,52,58,59,57,52,53,52,59,58,58,52,53,52,59,58,59,52,53,52,59,58,60,52,52,52,60,58,60,52,52,52,59,59,61,52,52,52,60,59,60,52,52,52,59,59,61,52,52,52,60,59,60,52,52,52,59,58,60,52,52,52,60,58,59,52,52,52,59,59,60,52,52,52,59,59,59,52,52,52,59,59,59,52,52,52,59,59,59,52,52,52,59,59,59,52,52,52,59,59,59,52,52,52,59,59,59,52,52,52,59,59,59,52,52,52,59,59,59,52,52,52,59,59,59,up
52,54,53,61,58,60,52,53,52,61,58,62,52,53,52,61,58,63,52,53,52,61,58,63,52,52,52,61,57,62,52,52,52,61,57,63,52,51,52,60,57,61,52,51,52,58,59,59,52,51,52,58,59,56,52,51,52,56,60,54,52,52,52,55,61,53,52,52,52,55,61,51,52,53,52,56,60,52,52,53,52,56,60,54,52,53,52,57,59,56,52,53,52,59,58,58,52,53,52,59,58,59,52,53,52,61,58,61,52,52,52,60,58,62,52,52,52,60,58,62,52,52,52,60,58,62,52,52,52,60,58,61,52,52,52,59,58,60,52,52,52,59,58,60,52,52,52,59,59,59,52,52,52,59,59,59,52,52,52,59,59,59,52,52,52,58,59,58,52,52,52,59,59,59,52,52,52,59,59,59,up
52,54,53,60,59,60,52,53,53,60,58,61,52,53,52,61,58,63,52,53,52,62,57,64,52,52,52,61,57,63,52,51,52,61,57,62,52,51,52,60,58,62,52,51,52,58,59,58,52,51,52,56,60,55,52,51,52,55,61,53,52,52,52,54,61,51,52,52,52,54,61,51,52,53,52,56,60,52,52,53,52,57,60,55,52,53,52,58,59,57,52,53,52,59,58,59,52,53,52,60,58,61,52,52,52,61,58,62,52,52,52,60,58,62,52,52,52,60,58,62,52,52,52,60,58,61,52,52,52,60,58,60,52,52,52,59,58,60,52,52,52,59,59,59,52,52,52,59,58,59,52,52,52,59,59,59,52,52,52,58,59,59,52,52,52,59,59,59,52,52,52,59,59,59,52,52,52,59,59,59,up
52,54,52,57,59,58,52,54,53,60,58,63,52,53,52,61,58,64,52,53,52,61,58,65,52,52,52,62,57,62,52,52,52,61,57,65,52,51,52,60,59,60,52,51,52,59,59,59,52,51,52,57,60,54,52,51,52,54,61,54,52,52,52,55,61,50,52,52,52,54,60,52,52,53,52,55,60,52,52,53,52,56,60,54,52,53,52,58,59,56,52,53,52,59,58,59,52,53,52,60,58,61,52,53,52,61,58,62,52,52,52,61,58,63,52,52,52,60,58,62,52,52,52,60,59,61,52,52,52,60,58,60,52,52,52,59,59,59,52,52,52,59,59,59,52,52,52,58,59,59,52,52,52,59,59,58,52,52,52,58,59,59,52,52,52,59,59,59,52,52,52,59,59,59,52,52,52,59,59,59,up
53,54,52,69,55,82,53,52,52,65,57,73,52,51,52,64,57,68,52,51,52,61,58,64,52,51,52,60,59,64,52,51,52,57,59,55,52,51,52,56,60,53,52,52,52,55,60,51,52,52,52,55,60,51,52,53,52,56,59,52,52,53,52,57,59,55,52,53,52,58,59,57,52,53,52,58,59,59,52,53,52,60,59,60,52,53,52,60,58,61,52,52,52,60,58,62,52,52,52,60,58,61,52,52,52,60,58,62,52,52,52,60,59,60,52,52,52,59,59,60,52,52,52,59,59,60,52,52,52,59,59,59,52,52,52,59,59,59,52,52,52,59,59,59,52,52,52,59,59,59,52,52,52,59,59,59,52,52,52,59,59,59,52,52,52,59,59,59,52,52,52,59,59,59,52,52,52,59,59,59,up
52,54,52,57,59,56,52,53,53,59,58,62,52,53,53,63,57,65,52,53,52,62,57,65,52,52,52,62,57,62,52,51,52,61,57,63,52,51,52,60,58,61,52,51,52,56,60,57,52,51,52,56,61,54,52,51,52,54,61,52,52,52,52,55,61,52,52,53,52,55,60,52,52,53,52,56,59,54,52,53,52,56,59,55,52,53,52,58,59,57,52,53,52,59,58,59,52,53,52,61,58,60,52,53,52,60,59,61,52,52,52,61,58,61,52,52,52,60,58,62,52,52,52,60,58,60,52,52,52,59,59,61,52,52,52,60,58,60,52,52,52,59,59,60,52,52,52,59,59,59,52,52,52,59,59,59,52,52,52,59,59,59,52,52,52,59,59,59,52,52,52,59,59,58,52,52,52,59,59,59,up
52,54,53,58,59,61,52,53,53,60,58,62,52,53,52,61,58,64,52,53,52,62,58,65,52,52,52,62,58,64,52,52,52,62,57,64,52,51,52,61,58,62,52,51,52,59,59,59,52,51,52,57,60,55,52,51,52,55,60,52,52,52,52,55,61,51,52,52,52,54,60,51,52,53,52,56,60,51,52,53,52,57,60,54,52,53,52,58,59,57,52,53,52,59,58,59,52,53,52,61,58,60,52,52,52,60,58,62,52,52,52,60,58,62,52,52,52,60,58,62,52,52,52,60,58,61,52,52,52,59,59,60,52,52,52,60,58,60,52,52,52,59,59,60,52,52,52,59,59,59,52,52,52,59,59,59,52,52,52,59,59,59,52,52,52,59,59,59,52,52,52,59,59,59,52,52,52,59,59,59,up
52,54,52,59,60,59,52,53,53,60,59,61,52,53,52,62,58,64,52,53,52,61,58,64,52,52,52,61,58,63,52,52,52,61,57,63,52,51,52,61,58,63,52,51,52,58,59,59,52,51,52,57,59,56,52,51,52,56,60,53,52,52,52,55,60,52,52,52,52,55,60,50,52,53,52,55,60,52,52,53,52,57,60,53,52,53,52,57,59,56,52,53,52,59,59,59,52,53,52,60,58,60,52,53,52,60,58,62,52,52,52,60,58,61,52,52,52,60,58,62,52,52,52,60,58,61,52,52,52,59,58,60,52,52,52,59,59,60,52,52,52,59,58,59,52,52,52,59,59,60,52,52,52,59,59,59,52,52,52,59,59,59,52,52,52,59,59,59,52,52,52,58,59,59,52,52,52,59,59,59,up
52,54,53,57,61,59,52,53,53,60,58,61,52,53,52,61,58,63,52,53,52,61,58,64,52,52,52,62,58,63,52,51,52,62,57,64,52,51,52,60,59,61,52,51,52,58,59,58,52,51,52,57,60,56,52,51,52,55,60,54,52,52,52,55,60,50,52,52,52,55,60,52,52,53,52,56,59,53,52,53,52,57,59,55,52,53,52,58,59,57,52,53,52,59,59,58,52,53,52,60,58,59,52,53,52,59,58,61,52,52,52,60,58,62,52,52,52,60,58,61,52,52,52,60,58,61,52,52,52,60,58,60,52,52,52,59,59,60,52,52,52,59,59,60,52,52,52,59,59,59,52,52,52,59,59,59,52,52,52,59,59,59,52,52,52,59,59,59,52,52,52,59,59,59,52,52,52,59,59,59,up
52,54,53,59,58,59,52,53,52,61,58,61,52,53,52,62,58,63,52,53,52,62,58,64,52,52,52,62,57,63,52,52,52,62,57,63,52,51,52,60,57,61,52,51,52,57,59,59,52,51,52,57,59,55,52,51,52,55,61,54,52,52,52,54,62,50,52,52,52,54,61,53,52,53,52,56,60,52,52,53,52,56,60,55,52,53,52,58,59,56,52,53,52,59,58,58,52,53,52,60,58,60,52,53,52,60,58,61,52,52,52,60,58,61,52,52,52,59,58,62,52,52,52,60,58,61,52,52,52,60,58,61,52,52,52,60,58,60,52,52,52,59,59,60,52,52,52,59,59,59,52,52,52,59,59,59,52,52,52,59,59,59,52,52,52,59,59,58,52,52,52,59,59,59,52,52,52,59,59,59,up
52,54,53,58,59,62,52,53,53,61,58,62,52,53,52,62,58,64,52,53,52,62,57,64,52,52,52,62,57,64,52,51,52,61,57,61,52,51,52,60,58,61,52,51,52,58,59,58,52,51,52,56,60,56,52,51,52,55,61,51,52,52,52,55,61,53,52,53,52,55,60,52,52,53,52,56,60,53,52,53,52,57,59,55,52,53,52,58,58,57,52,53,52,59,58,59,52,53,52,60,58,61,52,52,52,60,58,62,52,52,52,60,58,62,52,52,52,60,58,61,52,52,52,60,59,61,52,52,52,60,59,60,52,52,52,59,59,60,52,52,52,59,59,59,52,52,52,59,59,59,52,52,52,59,59,58,52,52,52,59,59,59,52,52,52,59,59,58,52,52,52,58,59,59,52,52,52,59,59,58,up
52,54,52,58,58,62,52,53,52,60,58,62,52,53,52,60,59,63,52,53,52,63,58,64,52,52,52,62,58,64,52,52,52,62,58,63,52,51,52,60,58,61,52,51,52,59,58,59,52,51,52,56,59,56,52,51,52,55,60,53,52,52,52,54,61,50,52,52,52,55,61,51,52,53,52,56,60,51,52,53,52,56,60,54,52,53,52,57,59,56,52,53,52,59,58,59,52,53,52,60,58,60,52,53,52,60,58,63,52,52,52,61,57,63,52,52,52,61,58,63,52,52,52,60,58,62,52,52,52,60,58,61,52,52,52,59,59,60,52,52,52,59,59,60,52,52,52,59,58,58,52,52,52,58,59,59,52,52,52,59,59,59,52,52,52,59,59,59,52,52,52,59,59,58,52,52,52,59,59,59,up
53,53,52,76,54,88,53,51,52,66,55,72,52,51,52,62,57,65,52,51,52,60,58,61,52,51,52,59,59,65,52,51,52,55,60,52,52,52,52,54,61,50,52,53,52,55,60,50,52,53,52,55,60,53,52,53,52,56,59,54,52,53,52,58,59,57,52,53,52,59,58,58,52,53,52,60,58,62,52,52,52,61,58,62,52,52,52,61,58,62,52,52,52,60,58,62,52,52,52,60,59,61,52,52,52,60,59,61,52,52,52,59,59,59,52,52,52,59,59,60,52,52,52,59,59,59,52,52,52,59,59,59,52,52,52,59,59,59,52,52,52,59,59,59,52,52,52,59,59,59,52,52,52,59,59,59,52,52,52,59,59,59,52,52,52,59,59,59,52,52,52,59,59,59,52,52,52,59,59,59,up
52,54,52,58,61,62,52,53,53,60,58,63,52,53,52,61,58,63,52,53,52,61,58,64,52,52,52,62,58,63,52,52,52,62,57,63,52,51,52,59,58,61,52,51,52,58,59,59,52,51,52,57,59,56,52,51,52,55,60,54,52,52,52,54,61,52,52,52,52,55,60,51,52,53,52,56,59,52,52,53,52,57,59,54,52,54,52,56,59,56,52,54,52,60,59,58,52,53,52,60,59,62,52,53,52,61,59,61,52,52,52,59,58,64,52,52,52,62,57,62,52,52,52,59,59,62,52,52,52,60,58,60,52,52,52,58,58,60,52,52,52,60,58,59,52,52,52,58,59,59,52,52,52,59,59,59,52,52,52,58,59,59,52,52,52,59,59,59,52,52,52,58,59,58,52,52,52,59,59,59,up
52,54,52,61,61,63,52,53,53,61,59,64,52,53,52,62,58,64,52,53,52,62,58,65,52,52,52,62,58,64,52,51,52,62,57,63,52,51,52,60,58,60,52,51,52,58,59,57,52,51,52,57,59,54,52,51,52,55,61,53,52,52,52,54,61,50,52,53,52,54,60,51,52,53,52,54,60,52,52,53,52,56,60,55,52,53,52,58,59,56,52,53,52,59,58,60,52,53,52,60,58,60,52,53,52,61,58,61,52,52,52,60,58,63,52,52,52,60,58,62,52,52,52,60,58,61,52,52,52,60,58,61,52,52,52,59,59,60,52,52,52,59,59,59,52,52,52,59,59,59,52,52,52,59,59,58,52,52,52,58,59,59,52,52,52,59,59,58,52,52,52,59,59,59,52,52,52,59,59,58,up
53,53,52,71,54,91,53,51,52,69,56,76,52,51,52,63,57,67,52,51,52,59,59,62,52,51,52,59,59,65,52,51,52,55,60,53,52,52,52,53,60,49,52,53,52,54,60,50,52,53,52,56,59,50,52,53,52,56,60,54,52,54,52,59,59,56,52,53,52,58,59,59,52,53,52,60,58,60,52,52,52,60,58,63,52,52,52,61,58,61,52,52,52,59,58,62,52,52,52,61,58,61,52,52,52,59,58,60,52,52,52,60,59,60,52,52,52,59,59,60,52,52,52,60,59,60,52,52,52,59,59,59,52,52,52,59,59,59,52,52,52,59,59,58,52,52,52,58,59,59,52,52,52,59,59,58,52,52,52,58,59,59,52,52,52,59,59,58,52,52,52,59,59,59,52,52,52,59,59,59,up
52,54,52,58,60,60,52,53,53,62,58,63,52,53,52,62,58,65,52,53,52,62,58,66,52,52,52,63,58,64,52,51,52,62,57,65,52,51,52,58,59,61,52,51,52,58,58,57,52,51,52,56,59,54,52,51,52,54,60,52,52,52,52,55,60,48,52,53,52,56,60,49,52,53,52,53,61,53,52,54,52,57,59,55,52,53,52,57,59,58,52,53,52,59,58,58,52,53,52,60,58,62,52,52,52,63,57,62,52,52,52,60,58,62,52,52,52,60,59,61,52,52,52,59,59,61,52,52,52,59,59,61,52,52,52,59,59,60,52,52,52,59,59,60,52,52,52,59,59,59,52,52,52,59,59,59,52,52,52,59,59,59,52,52,52,59,59,59,52,52,52,59,59,59,52,52,52,59,59,59,up
52,54,52,59,59,61,52,53,52,61,58,62,52,53,52,62,58,65,52,53,52,62,58,66,52,52,52,62,58,65,52,51,52,62,58,63,52,51,52,60,59,63,52,51,52,58,59,57,52,51,52,56,60,54,52,51,52,55,60,50,52,52,52,54,60,50,52,53,52,53,59,47,52,53,52,55,59,52,52,53,52,57,59,54,52,54,52,58,59,57,52,53,52,59,59,59,52,53,52,61,58,62,52,52,52,61,59,64,52,52,52,61,58,63,52,52,52,60,58,63,52,52,52,61,59,61,52,52,52,59,59,60,52,52,52,60,58,59,52,52,52,58,59,58,52,52,52,59,59,58,52,52,52,58,59,59,52,52,52,59,59,58,52,52,52,58,59,59,52,52,52,59,59,59,52,52,52,59,59,59,up
52,54,52,59,59,60,52,53,52,61,58,62,52,53,52,62,59,63,52,53,52,62,58,64,52,52,52,61,58,63,52,52,52,62,57,65,52,51,52,61,57,62,52,51,52,58,58,60,52,51,52,57,59,57,52,51,52,56,60,54,52,51,52,55,61,51,52,52,52,54,61,50,52,53,52,55,60,51,52,53,52,56,60,52,52,53,52,57,59,55,52,53,52,58,58,58,52,53,52,59,58,59,52,53,52,60,58,61,52,52,52,60,58,61,52,52,52,60,58,63,52,52,52,61,58,62,52,52,52,60,59,61,52,52,52,59,59,61,52,52,52,59,59,60,52,52,52,59,59,60,52,52,52,59,59,59,52,52,52,59,59,59,52,52,52,59,59,59,52,52,52,59,59,58,52,52,52,59,59,59,up
52,54,52,59,60,59,52,53,52,61,58,61,52,53,52,63,59,64,52,53,52,63,57,64,52,52,52,62,58,64,52,52,52,63,57,63,52,51,52,61,57,64,52,51,52,58,57,58,52,51,52,56,59,57,52,51,52,56,60,53,52,52,52,54,61,53,52,52,52,54,61,51,52,53,52,56,61,52,52,53,52,57,60,54,52,53,52,57,59,55,52,53,52,58,58,57,52,53,52,59,58,58,52,53,52,59,58,59,52,53,52,60,58,60,52,52,52,60,58,61,52,52,52,61,58,60,52,52,52,59,59,62,52,52,52,60,59,61,52,52,52,59,59,61,52,52,52,59,59,60,52,52,52,59,59,60,52,52,52,59,59,59,52,52,52,59,59,59,52,52,52,59,59,59,52,52,52,59,58,59,up
52,53,53,57,58,61,52,53,52,61,58,61,52,53,52,61,58,65,52,53,52,61,58,65,52,52,52,61,58,64,52,52,52,63,58,62,52,51,52,60,58,63,52,51,52,58,58,57,52,51,52,56,59,55,52,51,52,56,60,52,52,52,52,53,61,50,52,53,52,54,61,49,52,53,52,55,60,53,52,53,52,57,59,54,52,53,52,58,58,58,52,53,52,59,58,59,52,53,52,61,58,61,52,52,52,60,58,63,52,52,52,61,58,63,52,52,52,60,59,63,52,52,52,60,59,61,52,52,52,60,59,60,52,52,52,59,59,59,52,52,52,59,59,59,52,52,52,58,59,58,52,52,52,59,59,58,52,52,52,58,59,58,52,52,52,59,59,59,52,52,52,59,59,59,52,52,52,59,59,59,up
52,54,52,57,60,59,52,53,53,61,59,62,52,53,52,60,58,63,52,53,52,61,58,64,52,52,52,61,58,63,52,52,52,62,58,64,52,51,52,60,58,62,52,51,52,59,59,60,52,51,52,57,59,55,52,51,52,56,60,54,52,51,52,55,60,52,52,52,52,54,60,50,52,53,52,55,60,52,52,53,52,57,59,53,52,53,52,57,59,56,52,53,52,58,58,58,52,53,52,59,58,59,52,53,52,61,58,61,52,52,52,60,59,62,52,52,52,60,58,61,52,52,52,60,59,62,52,52,52,60,59,60,52,52,52,59,59,60,52,52,52,59,59,60,52,52,52,59,58,60,52,52,52,59,59,59,52,52,52,59,58,59,52,52,52,59,59,59,52,52,52,59,59,59,52,52,52,59,59,59,up
52,54,53,58,59,62,52,53,52,60,58,62,52,53,52,60,58,62,52,53,52,62,58,64,52,53,52,62,58,65,53,52,52,63,57,64,52,51,52,61,58,62,52,51,52,59,58,61,52,51,52,57,59,57,52,51,52,55,60,53,52,51,52,54,61,51,52,52,52,53,61,49,52,53,52,56,60,51,52,53,52,56,60,51,52,53,52,56,59,54,52,53,52,58,59,56,52,53,52,59,58,59,52,53,52,60,58,61,52,53,52,61,58,63,52,52,52,62,58,63,52,52,52,60,58,63,52,52,52,61,58,63,52,52,52,59,59,61,52,52,52,59,59,61,52,52,52,59,59,59,52,52,52,59,59,59,52,52,52,59,59,58,52,52,52,59,59,58,52,52,52,59,59,59,52,52,52,59,58,58,up
53,53,52,73,57,86,52,52,52,67,57,73,52,51,52,64,58,68,52,51,52,61,58,63,52,51,52,60,59,65,52,51,52,56,59,54,52,51,52,54,60,52,52,52,52,54,60,50,52,53,52,55,60,50,52,53,52,55,59,53,52,53,52,57,59,55,52,53,52,58,59,58,52,53,52,59,58,59,52,53,52,60,59,62,52,52,52,61,58,61,52,52,52,60,58,62,52,52,52,60,58,61,52,52,52,59,59,62,52,52,52,60,58,59,52,52,52,59,59,61,52,52,52,59,58,59,52,52,52,59,59,59,52,52,52,59,59,59,52,52,52,59,59,59,52,52,52,59,59,59,52,52,52,59,59,59,52,52,52,59,59,59,52,52,52,59,59,59,52,52,52,59,59,59,52,52,52,59,59,59,up
52,54,53,57,59,60,52,53,53,60,58,61,52,53,52,61,57,64,52,53,52,62,58,65,52,52,52,61,58,64,52,51,52,62,58,63,52,51,52,60,58,62,52,51,52,59,59,59,52,51,52,57,60,55,52,51,52,56,60,52,52,52,52,54,61,49,52,53,52,54,61,50,52,53,52,55,60,51,52,53,52,56,60,54,52,54,52,57,59,57,52,53,52,59,58,59,52,53,52,61,58,62,52,52,52,60,58,63,52,52,52,61,58,63,52,52,52,61,58,62,52,52,52,60,58,62,52,52,52,59,58,60,52,52,52,59,59,60,52,52,52,59,59,59,52,52,52,59,59,58,52,52,52,59,59,59,52,52,52,59,59,59,52,52,52,59,59,59,52,52,52,59,59,58,52,52,52,59,59,59,up
52,54,53,56,58,61,52,53,52,62,57,61,52,53,52,62,58,65,52,53,52,63,57,65,52,52,52,62,57,65,52,51,52,62,57,62,52,51,52,59,58,62,52,51,52,58,59,57,52,51,52,56,60,54,52,51,52,55,61,52,52,52,52,54,61,49,52,53,52,54,60,51,52,53,52,56,59,53,52,53,52,57,59,55,52,53,52,57,58,57,52,53,52,59,58,59,52,53,52,60,58,60,52,52,52,60,58,61,52,52,52,60,58,62,52,52,52,61,59,61,52,52,52,60,58,61,52,52,52,60,58,61,52,52,52,60,59,60,52,52,52,59,59,60,52,52,52,59,59,59,52,52,52,59,59,59,52,52,52,59,59,59,52,52,52,59,59,59,52,52,52,59,59,59,52,52,52,59,59,59,up
52,54,52,59,60,59,52,53,53,59,59,62,52,53,52,62,57,64,52,53,52,62,58,65,52,52,52,62,57,64,52,51,52,61,57,63,52,51,52,60,58,61,52,51,52,57,59,59,52,51,52,56,60,55,52,51,52,55,61,52,52,52,52,55,61,51,52,53,52,54,60,51,52,53,52,56,59,52,52,53,52,57,59,54,52,53,52,57,59,58,52,53,52,60,58,58,52,53,52,60,58,60,52,52,52,60,59,63,52,52,52,60,58,62,52,52,52,60,58,61,52,52,52,59,59,62,52,52,52,60,59,60,52,52,52,59,58,60,52,52,52,59,58,59,52,52,52,59,59,60,52,52,52,59,59,59,52,52,52,59,59,59,52,52,52,59,59,59,52,52,52,59,59,59,52,52,52,59,59,58,up
52,54,52,57,61,57,52,54,53,61,59,63,52,53,52,63,58,65,52,53,52,63,57,66,52,52,52,63,57,63,52,51,52,62,57,65,52,51,52,60,58,62,52,51,52,57,59,58,52,51,52,55,60,54,52,51,52,54,62,53,52,52,52,55,62,48,52,53,52,54,61,51,52,53,52,55,60,51,52,53,52,56,59,54,52,53,52,58,59,57,52,53,52,58,58,60,52,53,52,61,58,60,52,53,52,60,58,63,52,52,52,61,58,63,52,52,52,60,58,64,52,52,52,61,58,60,52,52,52,59,59,62,52,52,52,60,59,59,52,52,52,58,59,59,52,52,52,59,59,58,52,52,52,58,59,59,52,52,52,59,59,59,52,52,52,59,59,59,52,52,52,59,59,59,52,52,52,59,59,59,up
53,50,51,75,52,90,52,50,52,64,56,69,52,50,52,61,57,61,52,51,52,58,59,58,52,51,52,58,59,65,52,52,52,53,61,50,52,53,52,54,60,50,52,53,52,55,61,54,52,53,53,58,59,55,52,53,52,58,58,59,52,53,52,60,58,59,52,53,52,60,58,63,52,52,52,61,58,60,52,52,52,59,58,62,52,52,52,60,58,60,52,52,52,59,59,60,52,52,52,59,59,60,52,52,52,59,59,59,52,52,52,59,59,59,52,52,52,59,59,59,52,52,52,59,59,59,52,52,52,59,59,59,52,52,52,59,59,59,52,52,52,58,59,59,52,52,52,59,59,59,52,52,52,59,59,59,52,52,52,58,59,59,52,52,52,59,59,59,52,52,52,59,59,59,52,52,52,59,59,59,down
56,50,51,49,67,25,55,52,51,50,63,37,54,53,52,54,61,46,53,53,52,54,60,53,53,53,52,58,60,53,52,53,52,61,57,64,52,53,52,63,57,68,52,52,52,63,57,70,52,52,52,64,58,70,52,52,52,62,57,66,52,51,52,62,58,62,52,51,52,60,58,60,52,52,52,58,59,59,52,52,52,58,59,56,51,52,52,57,59,54,52,52,52,55,60,54,52,52,52,57,60,55,52,53,52,57,59,55,52,53,52,57,59,56,52,53,52,58,59,58,52,52,52,59,58,58,52,52,52,58,58,60,52,52,52,59,59,59,52,52,52,59,59,59,52,52,52,59,59,59,52,52,52,59,59,59,52,52,52,59,59,59,52,52,52,59,59,58,52,52,52,59,59,59,52,52,52,59,59,59,down
52,51,52,61,57,57,52,51,52,60,59,56,53,51,52,56,60,53,53,52,52,56,59,51,53,52,52,57,61,52,53,53,52,55,61,53,53,53,52,55,60,52,52,53,52,59,59,58,52,53,52,59,59,64,52,53,52,62,57,69,52,52,52,63,57,67,52,52,52,63,58,72,52,52,52,62,57,69,52,51,52,62,58,64,52,52,52,59,59,61,52,52,52,60,59,58,52,52,52,59,59,56,52,52,52,57,59,55,52,52,52,57,59,54,52,52,52,56,59,55,52,52,52,56,59,54,52,53,52,57,59,57,52,53,52,59,59,57,52,52,52,59,59,58,52,52,52,59,58,59,52,52,52,59,59,59,52,52,52,59,59,59,52,52,52,59,59,59,52,52,52,59,59,59,52,52,52,59,59,59,down
52,50,52,63,57,57,52,51,52,60,59,55,53,51,52,56,60,54,53,52,52,57,60,52,53,52,52,57,61,52,53,53,52,54,60,52,53,53,52,56,60,54,53,53,52,57,59,58,52,53,52,59,58,63,52,53,52,62,57,69,52,52,52,64,57,67,52,52,52,62,56,72,52,52,52,64,58,69,52,51,52,62,58,65,52,51,52,60,58,60,52,52,52,59,59,58,52,52,52,59,59,56,51,52,52,59,59,54,52,52,52,57,59,55,52,52,52,56,59,55,52,52,52,57,59,55,52,52,52,57,59,56,52,52,52,57,59,57,52,52,52,59,59,58,52,52,52,58,59,59,52,52,52,59,59,59,52,52,52,59,59,59,52,52,52,59,59,59,52,52,52,59,59,59,52,52,52,59,59,59,down
52,50,52,58,57,56,53,51,52,61,58,53,53,51,52,58,59,52,53,52,52,56,60,51,53,52,52,58,61,52,53,53,52,56,61,52,53,53,52,55,60,54,53,53,52,57,59,59,52,53,52,60,58,62,52,53,52,61,57,69,52,52,52,64,56,69,52,52,52,64,57,69,52,52,52,63,57,69,52,51,52,61,58,66,52,51,52,59,58,61,52,52,52,59,58,58,52,52,52,57,59,57,52,52,52,57,60,55,52,52,52,57,59,54,52,52,52,57,60,55,52,52,52,57,60,55,52,52,52,58,59,55,52,53,52,58,59,57,52,52,52,59,59,58,52,52,52,59,58,58,52,52,52,59,59,59,52,52,52,59,59,59,52,52,52,59,59,59,52,52,52,58,59,59,52,52,52,59,59,59,down
52,51,52,60,58,56,53,50,52,63,59,54,53,51,52,57,61,50,53,52,52,55,61,51,53,52,52,57,61,52,53,53,52,55,62,54,53,53,52,54,60,53,53,53,52,57,59,62,52,53,52,61,57,62,52,53,52,63,56,70,52,52,52,62,55,68,52,52,52,64,57,69,52,52,52,63,56,68,52,51,52,61,58,64,52,52,52,58,59,61,52,52,52,61,59,58,52,52,52,58,59,56,51,52,52,57,60,55,52,52,52,58,60,55,52,52,52,57,60,55,52,52,52,57,60,56,52,53,52,58,59,56,52,52,52,58,59,57,52,52,52,58,59,59,52,52,52,59,59,58,52,52,52,59,59,59,52,52,52,59,59,59,52,52,52,59,59,59,52,52,52,59,59,58,52,52,52,59,59,59,down
52,51,52,59,58,58,52,51,52,58,59,55,53,51,52,57,59,53,53,51,52,56,59,51,53,52,52,56,60,52,53,52,52,55,60,52,53,53,52,56,60,53,53,53,52,57,60,58,52,53,52,58,59,63,52,53,52,63,57,69,52,52,52,64,57,68,52,52,52,63,57,71,52,52,52,64,57,68,52,52,52,64,58,66,52,52,52,59,58,62,52,52,52,59,58,60,52,52,52,59,58,56,52,52,52,57,59,55,51,52,52,56,59,56,52,52,52,57,59,53,52,52,52,57,60,54,52,53,52,56,60,56,52,53,52,58,60,56,52,53,52,59,59,57,52,52,52,59,59,58,52,52,52,58,59,59,52,52,52,60,59,58,52,52,52,59,59,59,52,52,52,58,59,59,52,52,52,59,59,59,down
53,51,52,61,59,56,53,51,52,59,59,55,53,51,52,58,59,53,53,51,52,57,60,51,53,52,52,54,60,51,53,53,52,53,61,53,53,53,52,55,58,54,53,53,52,59,59,59,52,53,52,60,59,63,52,53,52,64,58,70,52,52,52,67,57,67,52,52,52,65,59,73,52,52,52,61,58,68,52,51,52,63,57,65,52,52,52,61,58,60,52,52,52,59,58,59,52,52,52,58,58,57,51,52,52,57,59,54,51,52,52,56,60,55,52,52,52,56,60,55,52,52,52,56,60,55,52,53,52,57,59,56,52,53,52,58,59,56,52,52,52,58,58,58,52,52,52,59,58,58,52,52,52,59,59,59,52,52,52,59,59,59,52,52,52,59,59,59,52,52,52,59,59,59,52,52,52,59,59,59,down
52,50,52,60,59,57,52,51,52,61,58,54,53,51,52,56,61,52,53,52,52,55,60,52,53,52,52,56,60,53,53,53,52,55,61,52,53,53,52,54,58,55,53,53,52,59,58,59,52,53,52,60,58,62,52,53,52,64,57,66,52,52,52,64,57,69,52,52,52,64,59,68,52,52,52,63,58,68,52,51,52,63,58,64,52,52,52,58,59,63,52,52,52,58,59,60,52,52,52,59,59,57,52,52,52,57,59,57,52,52,52,57,59,55,52,52,52,57,59,56,52,52,52,57,59,54,52,52,52,57,59,56,52,53,52,57,59,56,52,53,52,59,59,57,52,52,52,59,59,58,52,52,52,59,58,59,52,52,52,59,59,59,52,52,52,59,59,59,52,52,52,59,59,59,52,52,52,59,59,59,down
52,50,52,63,59,54,52,51,52,62,58,52,53,51,52,58,60,52,53,51,52,56,60,52,53,52,52,56,61,52,53,52,52,55,61,53,53,53,52,54,60,55,53,53,52,57,59,59,52,53,52,57,58,60,52,53,52,61,57,66,52,52,52,63,56,66,52,52,52,63,57,69,52,52,52,64,58,68,52,52,52,65,57,65,52,52,52,61,58,65,52,52,52,59,58,61,52,52,52,60,58,59,52,52,52,58,58,57,51,52,52,56,59,57,51,52,52,57,59,54,52,52,52,57,60,55,52,52,52,56,60,55,52,52,52,57,59,56,52,53,52,58,59,56,52,52,52,58,59,58,52,52,52,59,59,58,52,52,52,59,58,58,52,52,52,59,59,59,52,52,52,59,59,59,52,52,52,59,59,59,down
52,51,52,63,57,58,52,51,52,59,57,55,53,51,52,57,59,53,53,51,52,57,60,52,53,52,52,57,61,53,53,52,52,56,61,52,53,53,52,55,60,55,53,53,52,59,60,57,52,53,52,58,58,62,52,53,52,61,56,66,52,52,52,61,56,69,52,52,52,64,58,68,52,52,52,62,57,69,52,52,52,63,57,65,52,52,52,60,58,65,52,52,52,61,59,60,52,52,52,60,59,58,52,52,52,57,59,57,51,52,52,57,60,55,51,52,52,57,59,54,52,52,52,56,60,53,52,53,52,56,59,55,52,53,52,58,59,55,52,53,52,58,59,57,52,52,52,59,59,58,52,52,52,59,58,59,52,52,52,59,59,59,52,52,52,59,59,59,52,52,52,59,59,59,52,52,52,59,59,59,down
52,51,52,62,58,54,52,51,52,61,57,53,53,51,52,58,60,54,53,52,52,57,60,54,53,52,52,57,61,53,53,52,52,55,61,52,53,53,52,54,62,54,53,53,52,56,59,56,52,53,52,58,58,60,52,53,52,59,57,64,52,53,52,63,57,67,52,52,52,63,57,68,52,52,52,64,58,70,52,52,52,64,58,67,52,52,52,63,58,66,52,52,52,61,58,62,52,52,52,61,58,60,52,52,52,59,58,58,51,52,52,58,59,56,51,52,52,57,59,54,51,52,52,56,60,54,52,52,52,56,60,55,52,52,52,57,60,54,52,53,52,57,59,56,52,53,52,58,59,57,52,52,52,59,58,58,52,52,52,59,59,58,52,52,52,59,59,59,52,52,52,59,59,59,52,52,52,59,59,59,down
52,51,52,59,59,54,53,51,52,58,59,54,53,51,52,57,60,53,53,52,52,57,60,53,53,52,52,56,60,53,53,52,52,56,60,53,53,53,52,53,60,55,53,53,52,57,58,56,52,53,52,58,59,61,52,53,52,60,58,62,52,53,52,63,57,66,52,52,52,65,57,68,52,52,52,63,59,68,52,52,52,62,57,66,52,52,52,62,58,65,52,52,52,58,59,64,52,52,52,60,58,60,52,52,52,60,58,59,52,52,52,58,59,57,51,52,52,57,59,56,51,52,52,57,59,53,52,52,52,56,59,55,52,52,52,56,59,55,52,53,52,57,59,55,52,53,52,57,59,57,52,52,52,59,59,57,52,52,52,59,59,59,52,52,52,59,59,58,52,52,52,59,59,59,52,52,52,59,59,58,down
52,51,52,57,58,58,53,51,52,60,58,56,53,51,52,58,59,53,53,52,52,56,60,53,53,52,52,57,60,53,53,52,52,56,60,52,53,53,52,56,61,52,53,53,52,56,60,57,52,53,52,59,58,60,52,53,52,61,58,66,52,52,52,62,57,67,52,52,52,62,57,71,52,52,52,62,56,69,52,52,52,63,57,68,52,52,52,60,57,64,52,52,52,60,58,61,52,52,52,61,58,58,52,52,52,59,59,57,51,52,52,57,60,55,51,52,52,57,60,54,52,52,52,56,60,54,52,52,52,56,60,54,52,53,52,58,59,56,52,53,52,58,59,57,52,52,52,59,59,58,52,52,52,59,59,58,52,52,52,59,59,58,52,52,52,58,59,59,52,52,52,59,59,59,52,52,52,59,59,58,down
52,51,52,59,57,55,52,51,52,58,58,55,52,51,52,56,59,55,53,51,52,57,59,51,53,52,52,58,60,52,53,53,52,56,61,52,53,53,52,58,59,57,53,53,52,60,60,57,52,53,52,60,60,62,52,53,52,59,57,67,52,52,52,62,57,67,52,52,52,61,58,71,52,52,52,61,57,65,52,52,52,61,57,67,52,52,52,62,58,61,52,52,52,60,58,60,52,52,52,59,59,58,52,52,52,59,59,56,52,52,52,58,59,55,52,52,52,56,59,55,52,52,52,57,59,56,52,53,52,58,59,55,52,53,52,57,59,57,52,52,52,58,59,58,52,52,52,59,59,58,52,52,52,58,59,58,52,52,52,58,59,59,52,52,52,59,58,58,52,52,52,58,59,58,52,52,52,59,59,58,down
53,51,52,64,56,55,52,51,52,61,58,55,52,51,52,57,60,54,53,51,52,57,60,53,53,52,52,57,60,52,53,52,52,56,61,53,53,53,52,54,61,54,53,53,52,56,59,58,52,53,52,59,60,60,52,53,52,62,58,67,52,52,52,62,57,67,52,52,52,64,57,70,52,52,52,65,57,67,52,51,52,62,57,65,52,52,52,59,59,63,52,52,52,60,58,59,52,52,52,59,58,58,52,52,52,58,59,56,52,52,52,57,59,55,52,52,52,57,59,54,52,52,52,56,59,55,52,52,52,56,59,55,52,53,52,57,59,56,52,53,52,58,59,58,52,52,52,59,59,58,52,52,52,59,59,59,52,52,52,59,59,59,52,52,52,59,59,59,52,52,52,59,59,59,52,52,52,59,59,59,down
53,51,52,60,59,55,53,51,52,60,58,54,53,51,52,58,59,54,53,51,52,57,59,52,53,52,52,57,60,51,53,52,52,57,60,51,53,53,52,56,60,55,53,53,52,57,59,59,52,53,52,59,59,63,52,53,52,61,58,67,52,52,52,62,57,70,52,52,52,63,57,71,52,52,52,63,57,69,52,51,52,61,58,64,52,52,52,59,58,60,52,52,52,59,58,59,52,52,52,58,59,57,51,52,52,56,59,56,51,52,52,57,59,54,52,52,52,57,59,55,52,52,52,57,59,55,52,53,52,58,59,56,52,53,52,58,59,56,52,52,52,58,59,58,52,52,52,59,58,58,52,52,52,59,58,58,52,52,52,59,59,60,52,52,52,59,59,59,52,52,52,59,59,59,52,52,52,59,59,59,down
52,51,52,62,58,54,53,51,52,58,58,53,53,51,52,55,58,54,53,52,52,57,58,53,53,52,52,56,59,53,53,52,52,56,59,54,53,53,52,57,60,55,53,53,52,58,59,57,52,53,52,59,59,58,52,53,52,59,58,64,52,53,52,62,58,64,52,52,52,62,58,69,52,52,52,62,59,66,52,52,52,62,58,68,52,52,52,62,58,63,52,52,52,58,58,64,52,52,52,60,59,60,52,52,52,59,59,58,52,52,52,57,59,57,52,52,52,58,59,56,52,52,52,58,59,55,52,52,52,57,59,55,52,52,52,57,59,55,52,52,52,58,59,56,52,52,52,58,58,55,52,52,52,57,59,58,52,52,52,59,59,58,52,52,52,59,59,58,52,52,52,59,59,59,52,52,52,59,59,59,down
53,51,52,65,59,55,53,51,52,63,59,55,53,51,52,58,59,54,53,52,52,56,60,53,53,52,52,56,60,54,53,52,52,56,60,53,53,53,52,54,60,55,53,53,52,58,59,54,52,53,52,58,58,62,52,53,52,61,58,62,52,52,52,60,58,68,52,52,52,63,57,64,52,52,52,60,58,71,52,52,52,62,58,65,52,52,52,60,59,65,52,52,52,60,58,60,52,52,52,60,59,59,52,52,52,59,58,58,52,52,52,59,59,57,52,52,52,59,59,55,52,52,52,57,59,55,52,52,52,57,59,56,52,52,52,57,60,55,52,52,52,56,59,56,52,52,52,58,59,57,52,52,52,58,59,58,52,52,52,59,59,58,52,52,52,58,58,59,52,52,52,59,59,59,52,52,52,59,59,59,down
52,50,52,66,58,56,52,51,52,59,58,54,52,51,52,54,60,55,53,51,52,57,59,54,53,52,52,57,60,54,53,52,52,55,60,52,53,53,52,57,61,55,53,53,52,59,59,56,52,53,52,58,58,59,52,53,52,61,58,67,52,52,52,63,57,64,52,52,52,62,57,69,52,52,52,62,57,68,52,52,52,62,59,67,52,52,52,60,58,62,52,52,52,59,58,61,52,52,52,59,59,60,52,52,52,61,59,57,52,52,52,59,59,57,52,52,52,57,60,56,52,52,52,57,59,56,52,52,52,57,59,55,52,52,52,56,59,56,52,52,52,57,59,56,52,52,52,58,58,56,52,52,52,58,59,58,52,52,52,59,59,58,52,52,52,59,59,58,52,52,52,59,59,59,52,52,52,59,59,59,down
53,51,52,63,59,55,53,51,52,60,59,55,53,52,52,58,60,55,53,52,52,58,59,54,53,52,52,58,60,54,53,52,52,56,60,52,53,53,52,55,60,56,53,53,52,59,59,54,52,53,52,58,59,62,52,53,52,59,58,61,52,53,52,61,57,68,52,52,52,63,57,65,52,52,52,59,57,69,52,52,52,61,57,66,52,52,52,61,58,63,52,52,52,60,58,61,52,52,52,60,59,61,52,52,52,61,60,58,52,52,52,60,59,56,52,52,52,57,59,57,52,52,52,57,59,55,52,52,52,56,59,54,52,52,52,55,59,54,52,53,52,57,59,58,52,53,52,58,59,56,52,52,52,58,59,58,52,52,52,59,59,59,52,52,52,59,59,59,52,52,52,59,59,59,52,52,52,59,59,59,down
53,51,52,59,57,56,53,51,52,60,58,53,53,51,52,57,59,51,53,52,52,55,59,53,53,52,52,58,59,54,53,52,52,58,60,54,53,53,52,57,61,53,52,53,52,58,59,59,52,53,52,59,58,61,52,53,52,59,59,66,52,52,52,61,57,66,52,52,52,61,57,67,52,52,52,62,58,66,52,52,52,62,58,67,52,52,52,61,58,62,52,52,52,59,59,60,52,52,52,60,59,59,52,52,52,59,59,58,52,52,52,58,59,57,52,52,52,58,59,55,52,52,52,57,59,56,52,52,52,57,59,55,52,53,52,57,59,56,52,53,52,58,59,56,52,52,52,59,59,58,52,52,52,59,59,58,52,52,52,59,59,59,52,52,52,59,59,59,52,52,52,59,59,59,52,52,52,58,59,59,down
52,51,52,64,58,56,52,51,52,60,59,54,53,51,52,57,59,53,53,52,52,57,60,53,53,52,52,58,60,52,53,52,52,55,60,53,53,53,52,57,61,54,53,53,52,56,59,60,52,53,52,60,59,59,52,53,52,59,58,67,52,52,52,61,57,66,52,52,52,60,56,70,52,52,52,63,57,65,52,52,52,59,57,66,52,52,52,61,58,62,52,52,52,60,59,60,52,52,52,60,59,58,52,52,52,59,60,58,52,52,52,59,59,56,52,52,52,58,59,54,52,52,52,56,59,56,52,52,52,57,59,56,52,52,52,57,59,55,52,53,52,57,59,58,52,52,52,59,58,58,52,52,52,59,58,58,52,52,52,58,59,59,52,52,52,59,59,59,52,52,52,59,59,58,52,52,52,58,59,59,down
52,51,52,61,59,56,52,51,52,61,58,54,53,51,52,57,59,54,53,52,52,57,59,53,53,52,52,58,60,54,53,52,52,56,60,53,53,53,52,55,60,56,53,53,52,57,59,58,52,53,52,60,59,62,52,53,52,59,59,64,52,52,52,62,58,68,52,52,52,63,58,65,52,52,52,63,58,66,52,52,52,60,58,66,52,52,52,61,58,61,52,52,52,60,58,60,52,52,52,59,59,60,52,52,52,59,59,57,52,52,52,58,59,56,52,52,52,56,59,55,52,52,52,57,59,57,52,52,52,57,59,54,52,52,52,57,59,56,52,52,52,57,59,57,52,52,52,59,59,57,52,52,52,59,59,58,52,52,52,58,59,58,52,52,52,59,59,59,52,52,52,59,58,59,52,52,52,59,59,59,down
52,51,52,60,59,55,52,51,52,57,59,54,53,51,52,59,59,54,53,52,52,57,59,53,53,52,52,56,60,54,53,52,52,56,60,53,53,53,52,58,60,55,53,53,52,56,59,58,52,53,52,59,59,64,52,53,52,61,58,64,52,52,52,62,57,66,52,52,52,61,57,69,52,52,52,62,59,67,52,52,52,62,58,65,52,52,52,61,58,62,52,52,52,60,59,60,52,52,52,60,59,59,52,52,52,59,58,56,52,52,52,58,59,55,52,52,52,57,60,55,52,52,52,57,59,55,52,52,52,57,60,55,52,53,52,57,59,57,52,52,52,58,59,57,52,52,52,59,58,58,52,52,52,59,59,58,52,52,52,59,58,59,52,52,52,60,58,58,52,52,52,58,59,59,52,52,52,58,59,59,down
52,51,52,60,58,57,52,51,52,61,58,54,53,51,52,57,59,54,53,52,52,56,59,53,53,52,52,56,59,54,53,52,52,57,60,52,53,53,52,56,61,54,53,53,52,57,59,57,52,53,52,59,59,62,52,53,52,61,58,64,52,53,52,61,58,66,52,52,52,62,57,69,52,52,52,63,58,68,52,52,52,62,58,66,52,52,52,61,58,63,52,52,52,60,59,61,52,52,52,59,59,59,52,52,52,59,59,58,52,52,52,59,59,56,51,52,52,58,59,54,52,52,52,56,59,55,52,52,52,56,59,54,52,53,52,57,59,54,52,53,52,57,59,57,52,53,52,59,59,57,52,52,52,59,59,59,52,52,52,59,58,59,52,52,52,59,59,60,52,52,52,59,59,59,52,52,52,59,59,59,down
53,51,52,60,58,54,53,51,52,60,59,54,53,51,52,58,60,53,53,51,52,57,60,52,53,52,52,56,60,52,53,53,52,55,60,53,53,53,52,57,60,54,52,53,52,57,59,60,52,53,52,60,58,61,52,53,52,62,57,67,52,52,52,63,57,66,52,52,52,62,57,71,52,52,52,62,58,67,52,52,52,61,58,65,52,52,52,61,59,62,52,52,52,59,59,60,52,52,52,60,59,58,52,52,52,59,59,55,51,52,52,58,59,54,52,52,52,57,59,55,52,52,52,57,59,54,52,53,52,57,59,55,52,53,52,57,59,56,52,53,52,58,59,57,52,52,52,59,59,59,52,52,52,59,58,58,52,52,52,59,59,60,52,52,52,59,59,59,52,52,52,59,59,59,52,52,52,59,59,59,down
53,51,52,64,58,56,52,51,52,62,58,55,53,51,52,57,59,53,53,52,52,56,60,52,53,52,52,56,60,52,53,53,52,56,61,53,53,53,52,55,61,54,52,53,52,58,59,60,52,53,52,61,58,63,52,53,52,63,57,67,52,52,52,61,56,67,52,52,52,62,57,70,52,52,52,62,57,66,52,52,52,61,58,63,52,52,52,59,59,61,52,52,52,59,59,59,52,52,52,59,59,57,52,52,52,58,59,56,52,52,52,57,59,55,52,52,52,57,59,54,52,52,52,57,59,55,52,52,52,57,59,56,52,53,52,58,59,56,52,52,52,59,59,57,52,52,52,58,59,59,52,52,52,59,58,58,52,52,52,59,59,59,52,52,52,59,59,59,52,52,52,59,59,59,52,52,52,59,59,59,down
52,50,52,60,57,57,53,51,52,60,58,55,53,51,52,57,60,53,53,52,52,55,59,52,53,52,52,56,59,51,53,53,52,55,60,52,53,53,52,56,60,52,53,53,52,58,58,59,52,53,52,61,59,60,52,53,52,61,58,70,52,52,52,64,58,67,52,52,52,62,57,71,52,52,52,62,58,69,52,52,52,61,58,66,52,52,52,61,58,62,52,52,52,59,58,60,52,52,52,58,59,58,51,52,52,58,59,55,51,52,52,57,59,53,51,52,52,56,59,55,52,52,52,56,59,53,52,53,52,58,60,55,52,53,52,58,59,56,52,53,52,59,59,58,52,52,52,59,59,58,52,52,52,59,59,59,52,52,52,59,58,59,52,52,52,59,59,59,52,52,52,59,59,59,52,52,52,59,59,59,down
53,51,52,59,58,53,53,51,52,59,58,54,53,51,52,59,59,53,53,51,52,57,60,52,53,52,52,56,60,51,53,53,52,57,61,51,53,53,52,56,62,54,53,53,52,56,59,60,52,53,52,59,59,64,52,53,52,62,57,65,52,52,52,61,56,71,52,52,52,62,56,71,52,52,52,64,58,69,52,52,52,61,57,64,52,52,52,60,58,61,52,52,52,60,59,58,52,52,52,58,59,56,51,52,52,57,60,56,52,52,52,58,59,54,52,52,52,57,59,54,52,52,52,56,60,55,52,52,52,58,59,56,52,53,52,58,59,56,52,52,52,58,59,58,52,52,52,59,59,59,52,52,52,59,58,58,52,52,52,59,59,59,52,52,52,59,59,59,52,52,52,59,59,59,52,52,52,59,59,59,down
52,51,52,60,58,55,53,51,52,58,58,54,53,51,52,57,58,53,53,51,52,57,59,51,53,52,52,55,59,52,53,53,52,56,60,51,53,53,52,55,59,56,53,53,52,60,60,58,52,53,52,59,59,65,52,53,52,64,58,66,52,52,52,63,57,71,52,52,52,64,58,69,52,52,52,60,57,69,52,51,52,62,58,63,52,52,52,59,58,61,52,52,52,58,59,60,52,52,52,59,59,56,51,52,52,57,59,55,52,52,52,57,59,56,52,52,52,57,59,55,52,52,52,57,59,54,52,52,52,57,59,56,52,52,52,58,59,57,52,52,52,59,59,57,52,52,52,59,58,58,52,52,52,59,58,59,52,52,52,59,59,59,52,52,52,59,59,59,52,52,52,59,59,59,52,52,52,59,59,59,down
53,51,52,60,58,56,53,51,52,59,58,55,53,51,52,56,59,54,53,52,52,56,59,53,53,52,52,57,59,53,53,52,52,57,60,53,53,53,52,57,60,54,53,53,52,58,59,57,52,53,52,59,59,63,52,53,52,61,58,66,52,52,52,62,57,67,52,52,52,61,57,69,52,52,52,61,58,69,52,52,52,62,58,65,52,52,52,60,58,61,52,52,52,58,59,60,52,52,52,60,59,58,52,52,52,59,59,55,52,52,52,57,59,55,52,52,52,57,59,56,52,52,52,57,59,54,52,52,52,56,59,55,52,52,52,57,59,57,52,52,52,59,58,58,52,52,52,59,59,58,52,52,52,59,59,59,52,52,52,59,59,59,52,52,52,59,59,59,52,52,52,59,59,59,52,52,52,59,59,59,down
52,51,52,62,58,57,53,51,52,59,59,55,53,51,52,57,60,52,53,52,52,57,60,52,53,52,52,56,60,52,53,53,52,56,60,53,53,53,52,57,59,54,52,53,52,57,59,60,52,53,52,59,58,63,52,53,52,63,57,67,52,52,52,61,57,67,52,52,52,62,58,70,52,52,52,63,57,67,52,52,52,61,58,64,52,52,52,59,58,62,52,52,52,60,59,60,52,52,52,60,59,57,52,52,52,58,59,55,52,52,52,57,59,55,52,52,52,58,59,55,52,52,52,56,59,54,52,52,52,56,59,55,52,53,52,58,59,57,52,53,52,59,59,57,52,52,52,59,59,59,52,52,52,59,58,58,52,52,52,59,58,59,52,52,52,59,59,59,52,52,52,59,59,59,52,52,52,59,59,59,down
52,51,52,60,59,56,53,51,52,61,59,54,53,51,52,56,60,51,53,52,52,55,59,52,53,52,52,57,60,53,53,53,52,56,60,54,53,53,52,56,60,53,52,53,52,58,59,61,52,53,52,60,59,62,52,53,52,60,58,68,52,52,52,61,58,66,52,52,52,62,57,69,52,52,52,63,57,67,52,52,52,61,58,66,52,52,52,61,59,61,52,52,52,60,59,59,52,52,52,59,59,58,52,52,52,58,59,56,52,52,52,58,58,54,52,52,52,57,58,55,52,52,52,58,58,55,52,52,52,57,58,55,52,53,52,58,59,57,52,53,52,58,59,57,52,52,52,58,59,59,52,52,52,59,59,59,52,52,52,59,59,59,52,52,52,59,59,58,52,52,52,59,59,59,52,52,52,59,59,59,down
52,51,52,59,59,56,53,51,52,59,58,55,53,51,52,58,59,54,53,51,52,58,59,53,53,52,52,57,59,53,53,52,52,57,60,51,53,53,52,56,60,52,53,53,52,56,59,59,52,53,52,59,59,61,52,53,52,61,58,66,52,53,52,62,57,66,52,52,52,62,58,74,52,52,52,63,58,68,52,52,52,61,57,66,52,51,52,60,59,63,52,51,52,59,59,60,52,52,52,59,59,57,52,52,52,57,59,55,51,52,52,57,59,55,52,52,52,58,59,54,52,52,52,56,59,54,52,53,52,58,59,55,52,53,52,59,59,57,52,52,52,58,59,58,52,52,52,58,59,59,52,52,52,59,58,58,52,52,52,58,59,59,52,52,52,59,59,59,52,52,52,59,59,59,52,52,52,59,59,58,down
53,51,52,60,58,57,53,51,52,61,58,55,53,51,52,57,59,54,53,51,52,57,59,53,53,52,52,58,59,53,53,52,52,56,60,53,53,53,52,55,60,54,53,53,52,57,60,58,52,53,52,59,59,61,52,53,52,58,59,66,52,52,52,62,57,67,52,52,52,63,57,69,52,52,52,63,57,68,52,52,52,61,58,66,52,52,52,61,58,63,52,52,52,60,59,60,52,52,52,58,59,59,52,52,52,58,59,57,52,52,52,59,59,55,52,52,52,57,59,56,52,52,52,58,59,55,52,52,52,58,59,55,52,52,52,57,59,57,52,52,52,58,58,57,52,52,52,59,59,58,52,52,52,59,58,58,52,52,52,59,58,59,52,52,52,60,58,58,52,52,52,59,59,59,52,52,52,59,59,59,down
52,51,52,55,58,57,53,51,52,59,58,55,53,51,52,57,58,53,53,52,52,57,59,52,53,52,52,57,59,53,53,53,52,58,60,52,53,53,52,57,61,55,53,53,52,57,59,58,52,53,52,59,60,61,52,53,52,59,58,64,52,52,52,59,57,68,52,52,52,61,56,68,52,52,52,63,58,66,52,52,52,61,57,65,52,52,52,60,59,65,52,52,52,60,59,61,52,52,52,59,59,60,52,52,52,59,59,58,52,52,52,59,59,56,52,52,52,58,59,55,52,52,52,56,59,55,52,52,52,56,59,56,52,52,52,58,59,54,52,53,52,57,59,57,52,52,52,58,59,57,52,52,52,60,59,59,52,52,52,60,58,58,52,52,52,58,59,60,52,52,52,59,59,59,52,52,52,59,59,59,down
52,50,52,67,56,57,52,51,52,62,57,55,53,51,52,55,59,52,53,52,52,56,59,53,53,52,52,57,59,53,53,52,52,55,60,54,53,53,52,57,60,53,53,53,52,58,59,60,52,53,52,61,60,59,52,53,52,60,59,66,52,52,52,62,58,63,52,52,52,61,58,70,52,52,52,62,58,63,52,52,52,60,58,68,52,52,52,62,59,63,52,52,52,59,59,61,52,52,52,59,59,60,52,52,52,61,59,58,52,52,52,60,58,56,52,52,52,59,59,56,52,52,52,57,59,56,52,52,52,57,59,56,52,52,52,56,59,55,52,52,52,56,59,58,52,52,52,57,59,57,52,52,52,58,59,58,52,52,52,59,58,58,52,52,52,59,58,58,52,52,52,58,59,59,52,52,52,59,59,59,down
