AccX1,AccY1,AccZ1,GyrX1,GyrY1,GyrZ1,AccX2,AccY2,AccZ2,GyrX2,GyrY2,GyrZ2,AccX3,AccY3,AccZ3,GyrX3,GyrY3,GyrZ3,AccX4,AccY4,AccZ4,GyrX4,GyrY4,GyrZ4,AccX5,AccY5,AccZ5,GyrX5,GyrY5,GyrZ5,AccX6,AccY6,AccZ6,GyrX6,GyrY6,GyrZ6,AccX7,AccY7,AccZ7,GyrX7,GyrY7,GyrZ7,AccX8,AccY8,AccZ8,GyrX8,GyrY8,GyrZ8,AccX9,AccY9,AccZ9,GyrX9,GyrY9,GyrZ9,AccX10,AccY10,AccZ10,GyrX10,GyrY10,GyrZ10,AccX11,AccY11,AccZ11,GyrX11,GyrY11,GyrZ11,AccX12,AccY12,AccZ12,GyrX12,GyrY12,GyrZ12,AccX13,AccY13,AccZ13,GyrX13,GyrY13,GyrZ13,AccX14,AccY14,AccZ14,GyrX14,GyrY14,GyrZ14,AccX15,AccY15,AccZ15,GyrX15,GyrY15,GyrZ15,AccX16,AccY16,AccZ16,GyrX16,GyrY16,GyrZ16,AccX17,AccY17,AccZ17,GyrX17,GyrY17,GyrZ17,AccX18,AccY18,AccZ18,GyrX18,GyrY18,GyrZ18,AccX19,AccY19,AccZ19,GyrX19,GyrY19,GyrZ19,AccX20,AccY20,AccZ20,GyrX20,GyrY20,GyrZ20,AccX21,AccY21,AccZ21,GyrX21,GyrY21,GyrZ21,AccX22,AccY22,AccZ22,GyrX22,GyrY22,GyrZ22,AccX23,AccY23,AccZ23,GyrX23,GyrY23,GyrZ23,AccX24,AccY24,AccZ24,GyrX24,GyrY24,GyrZ24,AccX25,AccY25,AccZ25,GyrX25,GyrY25,GyrZ25,AccX26,AccY26,AccZ26,GyrX26,GyrY26,GyrZ26,AccX27,AccY27,AccZ27,GyrX27,GyrY27,GyrZ27,AccX28,AccY28,AccZ28,GyrX28,GyrY28,GyrZ28,AccX29,AccY29,AccZ29,GyrX29,GyrY29,GyrZ29,AccX30,AccY30,AccZ30,GyrX30,GyrY30,GyrZ30,Label
204,-15,237,2905,511,2821,103,-89,105,1254,-290,1059,66,-94,52,622,-488,313,28,-82,18,337,-461,-41,5,-62,-1,163,-443,498,-48,-46,-61,-485,-547,-787,-63,-6,-59,-454,-292,-831,-73,31,-58,-491,-69,-677,-64,56,-57,-456,144,-503,-52,72,-36,-396,426,-281,-41,70,-24,-315,646,-80,-16,72,-2,-294,759,126,6,50,24,-142,744,245,31,35,61,42,511,341,42,10,57,162,122,384,45,-6,52,202,-192,393,25,-23,19,267,-376,312,11,-21,2,275,-424,123,-7,-23,-23,170,-317,165,-14,-19,-26,83,-133,23,-15,-12,-18,40,-25,-17,-5,-6,-6,-10,22,-6,0,-2,-4,-7,29,-15,1,1,0,-20,16,-30,2,2,1,-14,13,-17,3,1,-1,-7,6,-4,1,2,3,-7,-9,-11,0,1,0,-3,-5,11,0,0,0,-3,-2,25,0,0,0,2,0,-12,clockwise
-52,124,-116,202,2125,-209,19,105,14,372,1378,206,40,76,42,528,769,513,62,39,60,539,310,583,58,9,52,559,36,289,64,-52,64,504,-595,278,36,-87,22,275,-878,170,7,-105,-18,-16,-905,-98,-33,-93,-48,-212,-735,-448,-55,-62,-65,-317,-508,-653,-58,-20,-61,-429,-249,-666,-67,13,-55,-424,6,-624,-57,40,-34,-383,291,-484,-49,59,-34,-360,510,-443,-36,70,-18,-509,690,-147,-26,73,2,-399,736,7,8,55,21,-313,652,237,21,42,32,-48,504,246,39,17,48,-32,241,414,48,-3,54,244,-97,371,40,-19,35,291,-276,357,19,-21,18,368,-328,71,6,-21,0,182,-376,171,-4,-14,-11,236,-288,28,-18,-14,-21,63,-142,57,-13,-5,-16,40,-59,-41,-7,-2,-14,-37,-10,27,-3,-1,-5,-38,28,18,-3,0,0,-52,37,20,2,-1,0,-14,28,-4,clockwise
-33,127,-90,-524,1666,79,0,103,-19,-200,1117,328,31,90,26,79,781,443,50,56,38,314,441,473,59,17,39,369,156,373,69,-31,55,527,-355,394,59,-64,38,556,-641,198,24,-92,4,414,-799,-121,-15,-90,-24,132,-760,-313,-48,-60,-47,-18,-599,-673,-64,-33,-55,-153,-385,-795,-70,-6,-54,-452,-139,-755,-65,24,-55,-491,92,-635,-47,42,-37,-594,382,-442,-35,52,-24,-627,608,-245,-16,59,-3,-692,709,133,6,51,20,-356,712,161,19,48,33,-366,561,429,36,32,48,20,240,339,40,14,47,143,-34,468,30,-2,35,374,-234,286,14,-15,8,355,-329,248,11,-31,1,412,-299,132,-6,-29,-20,199,-208,84,-10,-20,-18,130,-139,-20,-5,-13,-19,46,-79,-34,-5,-4,-11,-39,-59,36,-5,0,-5,-38,-31,-11,-3,3,-1,-37,-11,-16,-1,0,0,-22,9,19,clockwise
-69,4,-151,831,900,-671,-42,29,-54,-189,1022,-38,-16,72,-2,-128,840,146,17,65,34,255,642,368,34,41,41,447,377,191,66,16,78,404,6,645,77,-17,63,710,-434,339,63,-77,33,779,-768,180,21,-105,-10,316,-900,-194,-13,-98,-40,-81,-833,-531,-43,-67,-54,-221,-645,-757,-64,-37,-58,-408,-347,-965,-69,2,-58,-625,-50,-792,-59,42,-49,-675,170,-561,-55,57,-33,-568,430,-393,-38,66,-15,-667,701,-96,-19,67,1,-543,739,137,0,61,28,-380,675,352,25,37,47,-128,568,426,34,21,48,23,272,463,31,-3,31,208,-140,429,27,-17,31,242,-258,297,20,-28,5,307,-226,270,0,-26,-13,303,-261,90,2,-23,-9,177,-167,37,0,-12,-7,121,-62,-1,-2,-5,-13,76,-102,-26,-4,0,-7,6,-143,2,-1,1,0,4,-95,11,-3,0,-7,2,-100,6,clockwise
-111,42,-102,-18,1553,-322,-55,89,-30,-102,1188,99,-23,88,11,99,841,412,16,66,47,489,529,507,38,38,42,645,241,282,80,-12,59,723,-309,349,80,-65,46,752,-687,217,58,-107,9,460,-826,-91,18,-106,-33,37,-820,-445,-25,-87,-45,-241,-643,-708,-56,-38,-49,-491,-363,-917,-72,4,-69,-659,-134,-814,-69,44,-54,-670,67,-594,-70,60,-46,-590,389,-487,-46,62,-31,-726,668,-79,-28,64,-7,-550,778,38,1,53,30,-462,788,418,23,33,44,-114,679,319,43,20,53,-116,356,510,47,9,53,234,7,346,34,-6,33,278,-197,416,23,-20,20,457,-321,129,9,-23,1,311,-363,261,1,-28,-9,336,-321,74,-11,-23,-19,122,-251,76,-6,-16,-18,87,-205,-2,-11,-9,-16,-44,-121,14,-8,-1,-8,-44,-64,-32,-7,1,-1,-62,-22,6,-4,1,0,-24,-15,-33,clockwise
63,124,76,2424,16,-1034,-1,-72,-40,-520,83,174,12,40,27,330,36,-112,6,-1,6,-64,26,19,8,-2,6,-91,10,-419,-7,-25,-8,-560,3,651,6,28,19,201,-22,-292,-1,-23,-12,-201,-19,104,-1,-1,-2,39,-12,65,-2,3,-2,93,-2,-73,0,1,-2,57,4,-60,0,0,1,14,-7,12,0,0,0,-18,6,10,2,2,2,11,0,-23,0,-1,0,-24,2,33,0,0,0,20,-8,-12,-1,0,-2,-32,10,19,0,0,0,16,-3,-20,0,0,-1,-11,3,1,0,0,0,8,-1,17,0,0,0,-17,9,14,2,0,1,15,-4,-22,0,0,0,-14,8,13,1,0,0,-1,-4,16,0,1,0,7,-2,-17,0,0,0,-1,0,11,0,1,0,-4,-4,-16,0,0,0,10,2,14,-1,0,0,-1,1,-19,0,0,0,-5,1,10,clockwise
-110,76,-95,-115,1229,-108,-62,79,-38,-7,900,162,-13,80,12,160,768,369,20,64,28,463,504,426,41,28,40,503,245,342,73,-11,58,666,-178,333,78,-51,48,625,-510,238,52,-85,17,527,-764,-141,12,-101,-17,127,-811,-280,-30,-79,-43,-122,-669,-702,-47,-51,-54,-315,-478,-741,-66,-19,-58,-433,-220,-783,-64,11,-60,-631,-2,-591,-57,37,-44,-603,233,-443,-47,51,-34,-624,441,-248,-43,63,-17,-624,645,-40,-20,66,3,-602,724,209,2,54,29,-397,681,267,16,46,40,-236,592,356,39,24,51,28,309,384,50,4,52,164,-15,449,42,-11,37,405,-249,319,23,-27,11,412,-308,172,13,-34,0,408,-372,179,-7,-28,-19,229,-311,77,-13,-18,-22,180,-213,-53,-13,-16,-23,13,-108,44,-9,0,-12,14,-79,-59,-5,1,-8,-60,-52,44,0,3,0,-8,-18,-5,clockwise
-105,34,-111,160,1106,-89,-61,71,-44,-37,981,194,-26,66,-7,214,872,328,9,54,21,288,661,451,25,31,35,393,403,316,65,-1,63,447,-31,408,75,-46,59,532,-425,188,62,-74,37,415,-743,46,27,-91,7,275,-895,-294,-6,-81,-24,10,-823,-519,-36,-50,-38,-81,-630,-705,-55,-22,-58,-197,-422,-799,-63,2,-57,-464,-154,-685,-65,32,-57,-534,112,-542,-48,47,-43,-508,364,-385,-41,54,-34,-586,642,-241,-22,60,0,-637,838,113,2,59,21,-405,790,216,21,44,46,-263,658,425,27,28,45,-98,392,403,44,10,54,52,38,511,34,-9,28,248,-216,403,24,-25,18,317,-322,283,16,-29,-1,303,-338,195,6,-26,-10,219,-303,60,-6,-22,-20,167,-209,-11,-5,-13,-10,74,-150,-17,-10,-1,-16,-8,-91,-36,-8,2,-11,-10,-64,-29,-4,0,-2,-18,-26,3,clockwise
-83,132,-23,295,1920,462,-10,92,15,417,1081,550,14,67,37,547,699,557,40,35,52,585,365,528,40,6,41,597,101,364,69,-52,45,504,-497,235,47,-76,28,350,-656,-40,24,-90,1,128,-727,-264,-12,-79,-27,-82,-645,-587,-31,-54,-39,-274,-483,-682,-55,-18,-46,-309,-261,-730,-57,7,-50,-364,-81,-695,-55,27,-46,-567,54,-507,-50,42,-34,-508,225,-304,-42,46,-21,-535,414,-112,-26,56,-6,-543,552,-12,-10,52,11,-466,585,293,7,46,28,-183,535,268,14,28,26,-61,424,340,31,15,38,41,194,375,28,4,22,203,38,362,26,-12,16,239,-132,303,22,-19,4,265,-165,187,22,-18,4,139,-212,206,7,-13,-10,186,-188,37,4,-19,-3,74,-196,78,0,-8,-5,107,-137,-60,-5,-7,-7,36,-107,2,-5,-1,-8,58,-93,-59,-7,-2,-6,-23,-54,9,clockwise
-26,173,-31,-124,2507,674,10,119,28,472,1252,645,37,78,45,699,714,630,47,33,38,700,381,562,47,-1,35,617,128,413,61,-54,39,635,-586,159,43,-83,18,429,-736,-121,13,-94,-13,128,-774,-369,-17,-74,-26,-101,-700,-670,-36,-45,-41,-287,-542,-700,-62,-21,-47,-341,-314,-791,-62,4,-49,-570,-88,-625,-66,29,-39,-587,108,-487,-54,42,-30,-580,325,-241,-43,49,-20,-543,508,-161,-22,53,-2,-570,649,134,-7,50,11,-396,635,193,15,44,23,-263,562,289,30,30,34,-125,431,381,33,20,34,23,195,433,39,5,35,219,-47,396,34,-11,20,322,-185,288,25,-22,11,307,-261,265,8,-25,-4,305,-315,149,3,-23,-6,227,-264,17,-8,-17,-17,142,-180,23,-11,-8,-15,36,-109,-12,-8,-3,-11,23,-54,-54,-2,2,-5,-54,-46,10,-1,0,-3,-27,-33,-21,clockwise
-88,129,-43,-2,2104,713,-13,77,29,169,1021,684,2,65,33,373,662,600,20,37,39,400,413,536,25,16,34,448,254,398,55,-33,43,554,-321,168,45,-55,18,555,-501,-139,26,-82,0,271,-646,-269,0,-77,-19,88,-684,-508,-21,-64,-28,-116,-646,-641,-43,-38,-37,-275,-467,-665,-62,-11,-44,-461,-212,-561,-57,12,-40,-491,27,-437,-46,27,-32,-546,232,-276,-41,35,-21,-443,392,-195,-26,42,-9,-562,439,-36,-4,46,8,-408,468,77,11,44,13,-263,432,228,18,37,23,-57,406,95,26,29,14,-71,317,317,31,24,20,106,184,259,30,7,21,117,68,408,21,0,14,192,-13,269,20,-12,11,170,-171,274,15,-15,11,197,-219,254,4,-21,-3,208,-191,108,0,-19,-11,139,-170,2,-1,-13,-6,92,-153,-32,-10,-6,-13,16,-87,-77,-5,-1,-8,-21,-82,-79,clockwise
-81,53,-124,-226,1109,115,-29,47,-34,95,1034,178,-16,46,-14,32,805,364,1,39,13,193,624,387,7,34,26,293,449,374,38,11,60,516,89,316,43,-15,51,529,-259,349,45,-44,41,537,-513,43,35,-63,16,395,-688,-157,18,-77,-7,241,-736,-356,-9,-71,-23,5,-655,-642,-30,-53,-34,-232,-520,-644,-44,-25,-35,-279,-324,-669,-53,-5,-38,-327,-122,-579,-51,9,-41,-552,-14,-449,-39,28,-31,-550,151,-252,-32,38,-21,-485,302,-169,-23,41,-17,-436,467,-115,-8,46,0,-468,557,76,9,50,17,-218,619,100,15,46,23,-146,522,234,24,35,23,-43,380,303,29,22,26,9,189,425,33,5,14,145,-12,427,28,-8,15,147,-122,414,18,-17,0,197,-170,347,17,-22,2,200,-185,247,10,-23,-3,167,-196,95,-3,-19,1,116,-170,41,-8,-12,-6,81,-156,-68,clockwise
-76,46,-133,234,583,-231,-47,27,-73,49,625,-35,-34,39,-53,-22,698,112,-11,42,-18,11,663,234,2,43,-2,194,560,207,33,29,50,284,375,416,47,17,61,492,67,429,63,-28,64,647,-358,322,52,-55,41,601,-734,5,26,-77,20,413,-886,-182,-3,-77,-14,195,-863,-466,-23,-65,-27,-22,-702,-730,-48,-32,-37,-267,-464,-689,-63,-10,-39,-296,-194,-758,-59,7,-42,-493,-47,-470,-47,16,-36,-589,63,-339,-41,24,-27,-570,192,-121,-28,31,-18,-507,326,-165,-14,39,-9,-523,474,28,0,44,7,-356,545,102,9,43,12,-202,556,116,22,38,18,-172,488,182,23,34,19,-33,394,327,41,16,33,62,196,410,33,0,14,209,93,380,27,-11,16,224,-98,371,22,-20,7,290,-190,254,12,-26,1,173,-256,195,-3,-23,-13,173,-252,28,-2,-16,-3,51,-271,69,clockwise
-65,85,-113,50,1544,-127,-38,66,-55,182,1170,112,-17,57,-12,211,917,332,7,49,14,344,698,404,16,32,26,397,472,314,44,-1,54,501,5,335,57,-27,54,508,-382,289,48,-55,37,432,-687,30,26,-70,13,328,-881,-209,1,-74,-12,90,-875,-476,-23,-56,-20,-30,-760,-689,-45,-38,-31,-165,-506,-695,-54,-13,-38,-308,-274,-764,-59,0,-42,-444,-34,-550,-49,19,-31,-467,114,-430,-52,29,-31,-550,244,-289,-36,38,-16,-588,351,-118,-26,42,-7,-497,514,32,-2,50,7,-458,616,266,13,48,11,-348,593,262,34,31,27,-190,522,363,31,25,25,-34,339,423,45,8,34,146,72,432,36,-9,25,227,-166,375,21,-19,19,324,-265,238,11,-16,1,281,-307,97,6,-20,-6,196,-284,131,-5,-13,-15,110,-202,-3,-9,-8,-16,56,-122,-34,-5,-4,-14,-3,-76,-16,clockwise
-86,82,-134,-501,1340,183,-18,64,-32,43,1036,309,-15,48,-17,75,820,393,1,48,7,241,665,382,10,33,15,361,490,339,35,0,53,556,161,359,34,-21,47,497,-156,303,50,-46,48,544,-515,18,32,-71,26,339,-744,-98,12,-75,5,172,-800,-353,-6,-61,-11,46,-766,-564,-26,-50,-28,-24,-613,-760,-47,-22,-40,-183,-323,-682,-53,-2,-39,-243,-88,-698,-55,16,-37,-473,36,-525,-41,27,-31,-441,185,-363,-40,35,-28,-583,352,-165,-32,43,-17,-618,483,-5,-9,42,1,-600,535,271,8,45,14,-382,553,247,16,34,22,-360,458,335,30,28,25,-176,362,381,36,17,35,10,194,422,35,4,23,181,15,297,26,-10,13,244,-51,228,14,-15,3,286,-176,205,13,-17,7,271,-250,68,4,-21,-7,201,-269,84,-6,-12,-15,125,-225,0,-4,-9,-8,57,-219,4,clockwise
-73,55,-133,-514,1536,126,-27,55,-60,25,1268,167,-19,56,-19,-37,919,339,0,51,11,216,679,361,17,39,25,399,444,351,46,11,56,712,-2,241,48,-21,52,637,-394,278,44,-48,38,659,-616,-18,27,-66,13,491,-719,-195,1,-77,-11,166,-716,-431,-22,-65,-24,-80,-674,-605,-39,-48,-35,-225,-523,-675,-44,-25,-41,-446,-308,-682,-53,-8,-40,-456,-133,-550,-55,14,-33,-537,72,-452,-52,30,-24,-563,271,-333,-37,43,-10,-638,400,66,-27,43,6,-423,430,20,-2,45,12,-474,451,292,10,38,17,-263,445,239,28,27,15,-195,371,454,33,17,18,-38,315,308,34,10,16,60,197,344,34,0,17,137,45,219,32,-3,11,217,-138,201,21,-11,13,309,-205,137,7,-12,3,268,-271,107,4,-13,-6,242,-254,47,-9,-14,-15,147,-192,29,-8,-12,-11,60,-119,-33,clockwise
-83,41,-130,-20,1139,-234,-24,26,-52,-152,972,19,-7,47,-17,75,859,112,0,38,0,98,649,280,13,40,16,227,476,241,41,19,55,432,148,448,42,9,57,679,-135,270,40,-32,43,611,-452,274,36,-50,29,585,-604,-15,15,-76,6,405,-658,-267,-5,-70,-11,75,-635,-522,-24,-63,-24,-203,-566,-592,-38,-39,-28,-332,-376,-657,-47,-23,-25,-435,-195,-628,-52,-2,-28,-460,-76,-482,-52,6,-28,-471,59,-383,-42,17,-24,-439,210,-251,-34,24,-17,-481,299,-97,-20,33,-13,-505,367,-43,-2,43,0,-540,398,152,10,45,13,-331,408,169,19,38,12,-288,344,306,28,34,17,-74,331,271,27,28,15,62,198,383,25,15,23,195,122,316,26,6,15,222,77,362,19,-1,10,297,-4,161,16,-12,4,212,-166,251,8,-18,-2,199,-178,208,10,-23,-11,158,-182,33,clockwise
-95,36,-120,-160,694,-241,-61,39,-68,-86,843,-72,-31,44,-25,-42,832,126,-28,52,-8,18,700,239,0,53,25,189,468,281,46,36,58,605,154,369,67,-2,56,713,-285,398,68,-36,37,746,-683,129,61,-77,27,676,-870,-30,17,-94,-16,417,-849,-400,-25,-88,-30,-18,-673,-663,-55,-57,-35,-265,-418,-846,-73,-27,-39,-409,-170,-904,-73,2,-47,-620,10,-685,-59,21,-32,-687,99,-559,-48,34,-31,-698,255,-206,-25,42,-8,-698,335,-107,-13,43,0,-592,416,202,2,50,18,-385,438,310,14,44,19,-199,492,325,21,32,27,-174,362,476,21,22,13,54,284,340,26,8,21,116,143,398,32,-6,20,256,-19,269,23,-17,14,265,-140,277,24,-18,7,344,-236,86,12,-19,2,218,-292,67,2,-12,-6,179,-279,-33,-9,-7,-16,46,-204,13,-6,-3,-14,13,-172,-50,clockwise
-71,73,-118,-649,1797,100,-38,64,-57,-53,1339,221,-17,52,-22,-14,994,424,3,55,8,144,704,431,19,40,21,332,460,404,51,7,51,618,-58,350,62,-26,54,656,-426,342,52,-54,44,688,-649,-69,32,-80,17,504,-766,-218,0,-84,-10,244,-748,-492,-23,-68,-26,-7,-646,-752,-49,-46,-43,-271,-466,-792,-56,-18,-52,-468,-253,-733,-56,6,-52,-546,-16,-681,-54,27,-44,-703,223,-450,-43,42,-29,-743,464,-246,-21,60,-9,-679,648,-33,-4,65,12,-580,702,192,10,59,25,-372,634,348,35,43,42,-140,440,480,36,27,36,45,195,485,32,0,33,215,-57,518,32,-19,27,324,-227,308,17,-27,15,326,-217,251,7,-27,-3,290,-256,134,1,-24,-4,197,-229,84,-6,-14,-10,81,-185,-25,-10,-3,-17,13,-125,-46,-3,-1,-12,-59,-173,-6,-5,1,-5,-20,-106,35,clockwise
-82,145,-10,447,2410,1078,-9,94,31,255,1189,938,26,49,49,516,704,719,33,21,44,605,390,499,39,-5,33,605,110,357,56,-53,30,576,-562,43,36,-75,7,472,-701,-271,-2,-72,-17,195,-720,-504,-22,-61,-29,-62,-639,-627,-50,-42,-35,-262,-410,-699,-60,-20,-38,-434,-207,-610,-63,-1,-37,-466,-17,-542,-50,12,-32,-571,114,-396,-42,22,-24,-542,268,-263,-17,34,-7,-537,356,-132,-11,42,1,-419,458,-28,11,51,13,-375,518,123,21,52,16,-212,498,248,23,44,20,-148,377,423,30,32,23,-11,242,414,32,12,18,41,79,458,23,-8,21,161,-86,386,22,-22,16,276,-182,291,21,-27,9,233,-210,176,0,-21,-8,195,-236,-36,1,-12,-4,115,-205,-17,-5,-3,-15,81,-170,-81,-7,0,-11,-8,-119,-3,-7,3,-11,16,-102,-45,0,0,-5,1,-60,24,clockwise
-101,19,-117,452,874,-416,-46,44,-76,-34,959,48,-29,51,-42,-16,1002,259,-3,55,-2,180,806,376,17,45,20,280,576,282,54,23,62,371,214,580,62,-5,69,540,-214,468,64,-48,62,622,-671,157,38,-73,28,504,-860,-69,5,-84,-5,280,-876,-396,-22,-67,-30,58,-726,-599,-48,-54,-40,-115,-490,-780,-67,-23,-45,-301,-217,-839,-61,-6,-44,-466,-15,-635,-58,12,-36,-580,154,-484,-43,19,-22,-586,275,-276,-29,28,-15,-575,388,-161,-10,39,0,-578,441,-1,3,45,16,-407,456,240,15,39,24,-246,400,274,19,37,22,-159,322,287,25,27,24,-50,189,374,31,14,26,101,19,329,21,-1,15,91,-35,281,18,-4,18,270,-61,175,15,-13,0,221,-96,165,11,-9,1,192,-154,108,2,-10,-10,182,-118,63,2,-9,-10,128,-155,-3,3,-7,-17,-8,-173,49,clockwise
-98,19,-131,-195,933,-489,-37,51,-59,107,953,-125,-28,51,-24,-81,858,235,-12,48,8,101,589,342,8,46,23,137,358,280,50,30,62,432,23,409,50,-3,55,453,-280,525,58,-37,43,686,-567,117,47,-63,11,576,-683,-24,14,-86,-18,385,-699,-355,-18,-80,-40,31,-618,-475,-36,-63,-41,-119,-502,-676,-61,-40,-50,-365,-299,-728,-63,-14,-43,-591,-41,-614,-59,14,-35,-558,235,-500,-48,33,-17,-575,446,-386,-31,48,-12,-588,549,-287,-6,60,8,-616,577,69,5,61,20,-360,512,161,26,47,28,-246,401,377,32,34,22,-92,300,336,31,15,26,26,168,459,35,0,26,207,35,331,22,-11,10,222,-14,296,19,-15,12,285,-64,125,5,-16,3,298,-192,109,4,-16,-1,185,-253,67,-3,-12,-10,163,-240,31,-1,-10,-6,91,-271,-40,-8,-5,-11,9,-274,4,clockwise
-99,55,-108,-2,1717,-72,-50,62,-51,-77,1281,280,-17,58,-8,118,939,419,7,56,21,206,664,507,18,35,30,411,421,314,50,5,54,528,-62,441,55,-28,56,654,-411,172,48,-57,27,562,-640,-37,24,-82,-1,388,-758,-413,-3,-80,-26,89,-735,-562,-26,-63,-34,-155,-641,-755,-48,-39,-42,-386,-435,-757,-62,-13,-34,-457,-209,-667,-59,10,-34,-524,17,-502,-55,29,-23,-571,234,-342,-40,39,-16,-537,417,-111,-22,46,-5,-534,484,0,1,46,5,-426,513,200,4,42,14,-374,502,299,25,35,23,-172,390,302,34,25,24,-121,223,498,35,11,19,46,104,281,19,1,22,158,42,320,26,-4,23,352,-48,128,17,-10,1,253,-158,235,1,-17,-2,287,-193,161,1,-15,-5,240,-193,-25,4,-14,-16,96,-220,45,-2,-10,-21,-29,-212,76,-5,-9,-7,-16,-110,6,clockwise
-100,55,-113,118,1097,-79,-68,57,-62,-189,1053,281,-31,53,-10,84,880,434,-3,55,18,172,654,530,17,40,29,378,433,364,49,6,55,473,115,502,62,-25,60,684,-258,253,56,-50,38,637,-565,5,33,-83,7,514,-730,-378,-1,-85,-16,228,-744,-645,-21,-68,-31,-42,-691,-841,-42,-44,-41,-332,-517,-857,-55,-19,-48,-502,-309,-781,-56,6,-46,-625,-80,-646,-50,30,-43,-741,156,-362,-41,48,-27,-668,392,-105,-21,53,-14,-609,550,56,-10,54,7,-475,637,178,13,54,29,-323,599,335,27,36,32,-129,493,355,30,24,29,-56,310,480,37,11,34,160,72,305,29,-3,19,182,6,340,15,-11,14,312,-75,203,14,-13,6,272,-221,249,7,-19,3,279,-316,175,-2,-18,-9,208,-277,63,1,-15,-12,106,-337,1,-3,-12,-20,-4,-282,50,-8,-8,-11,-22,-166,8,clockwise
-96,67,-116,219,1715,-249,-38,75,-40,39,1387,247,-2,71,6,211,1065,498,12,59,34,301,702,611,30,35,41,463,396,335,58,-4,59,465,-132,486,62,-34,56,622,-539,217,42,-67,26,496,-792,-20,22,-81,-8,404,-842,-481,-15,-80,-37,126,-744,-701,-34,-52,-40,-121,-580,-945,-61,-30,-59,-315,-344,-848,-66,-3,-54,-571,-92,-731,-68,20,-48,-737,191,-574,-47,39,-23,-796,433,-236,-38,54,-14,-702,611,-122,-5,58,15,-639,678,220,10,55,23,-336,646,354,35,38,38,-158,497,400,38,30,33,-6,271,511,41,1,44,208,62,451,24,-15,22,375,14,303,30,-25,13,279,-168,262,6,-18,1,273,-229,166,0,-22,0,239,-247,98,-3,-11,-18,105,-226,-86,0,-5,-12,-42,-308,68,-10,0,-8,45,-192,-1,-2,-5,-7,-22,-136,0,-3,0,-8,-17,-75,19,clockwise
-58,145,6,355,2613,1043,-11,89,35,296,1234,921,24,55,52,573,607,760,36,22,42,591,295,586,38,2,36,622,39,405,44,-45,28,627,-653,42,25,-64,8,555,-723,-328,-6,-70,-17,239,-652,-569,-28,-58,-30,29,-578,-800,-51,-45,-47,-298,-411,-824,-55,-23,-47,-504,-198,-751,-51,-4,-44,-601,-36,-615,-43,21,-37,-697,152,-354,-37,32,-27,-661,368,-177,-19,44,-6,-611,544,68,-2,52,10,-439,582,96,15,49,20,-337,573,376,26,36,23,-144,478,290,31,29,27,-51,319,478,33,15,23,124,162,369,25,0,15,134,25,379,23,-9,21,252,-85,298,11,-16,8,302,-181,199,11,-22,2,214,-267,135,2,-17,-3,191,-290,72,0,-13,-8,124,-263,6,-9,-8,-19,22,-206,-72,-5,-5,-10,-51,-157,38,-7,1,-7,-5,-74,-56,-4,0,-3,-13,-31,0,clockwise
-80,62,-124,142,1684,-126,-36,53,-50,-43,1371,261,-16,64,-13,113,1108,434,4,65,30,290,746,556,28,44,37,511,421,387,63,1,61,598,-188,494,65,-26,54,753,-637,179,50,-66,28,717,-925,-130,24,-92,-15,386,-935,-472,-16,-87,-34,75,-774,-797,-49,-60,-44,-251,-492,-922,-66,-27,-49,-450,-239,-976,-67,-4,-47,-717,2,-656,-62,21,-31,-727,154,-511,-46,36,-29,-727,329,-165,-27,49,-11,-690,489,-30,-9,46,4,-550,605,148,11,52,23,-403,618,379,27,45,28,-185,548,303,37,31,36,-114,365,513,32,15,24,103,113,422,23,-1,22,133,-32,422,25,-13,27,335,-66,289,7,-19,-5,329,-125,243,6,-26,-4,231,-180,182,3,-20,-1,224,-120,38,5,-15,-8,119,-157,-36,-6,-6,-18,-5,-242,-62,0,-7,1,-28,-218,41,-5,2,-4,-5,-162,-69,clockwise
-106,73,-100,309,1714,73,-41,62,-14,148,1166,431,-25,71,2,345,848,516,3,45,28,447,591,581,25,29,32,584,370,363,59,-12,57,591,-183,435,58,-39,40,651,-559,58,49,-76,25,501,-758,-184,19,-79,-11,259,-792,-547,-17,-77,-28,-82,-708,-791,-40,-51,-43,-257,-489,-911,-61,-21,-52,-428,-192,-892,-62,0,-50,-611,14,-657,-57,24,-34,-681,136,-436,-47,39,-25,-667,287,-189,-31,47,-15,-610,451,-28,-11,46,4,-608,565,223,2,58,20,-343,585,262,23,43,26,-213,559,481,33,29,29,-92,428,374,33,19,36,44,191,534,34,0,29,218,-33,292,30,-18,19,211,-146,371,16,-22,9,286,-198,175,7,-19,-3,274,-279,87,2,-20,-11,204,-254,59,-5,-10,-17,113,-213,-32,-6,-7,-16,53,-188,-23,-6,-2,-13,0,-175,13,-2,-2,-5,2,-100,3,clockwise
-94,51,-115,-4,1110,-275,-54,46,-66,-116,1050,58,-22,58,-17,99,986,276,-9,54,5,95,734,477,22,43,30,390,470,354,59,13,54,543,21,486,71,-16,60,678,-439,286,59,-54,32,644,-853,124,41,-79,7,588,-955,-333,-6,-85,-32,214,-891,-634,-40,-67,-40,-83,-650,-848,-63,-38,-52,-340,-340,-937,-71,-6,-57,-545,-61,-857,-66,21,-39,-731,185,-603,-53,37,-36,-712,421,-344,-31,54,-18,-746,620,-62,-15,54,2,-563,710,99,11,52,26,-477,732,469,24,41,28,-243,616,438,41,28,46,-137,416,556,41,3,42,138,99,464,44,-8,36,236,-102,358,24,-23,22,330,-240,244,19,-28,7,368,-318,136,1,-28,-9,238,-365,53,-7,-16,-11,145,-295,-10,-15,-11,-19,44,-240,2,-12,-4,-16,8,-165,-55,-12,0,-10,-61,-109,15,-3,4,-1,22,-30,-25,clockwise
-21,149,-40,-294,1933,1388,4,108,20,402,1067,888,30,62,45,605,623,770,37,28,45,710,262,579,37,-3,32,576,24,603,43,-55,38,627,-556,-55,34,-80,17,406,-708,-198,1,-82,-14,111,-742,-514,-19,-70,-33,-187,-632,-645,-42,-41,-37,-299,-431,-771,-55,-10,-48,-393,-194,-792,-64,8,-44,-526,16,-576,-56,30,-39,-573,243,-400,-47,43,-22,-598,416,-168,-30,52,-6,-524,484,84,-14,46,10,-478,513,292,-1,45,24,-303,470,331,16,29,36,-83,355,441,28,11,32,21,253,389,25,0,14,93,168,291,26,-7,21,119,38,255,31,-9,5,102,-59,118,14,-12,5,83,-93,139,4,-4,-2,176,-113,-43,12,-8,6,119,-156,66,0,-3,-11,102,-147,-9,-1,-9,-2,151,-130,0,0,-2,-13,55,-119,-81,0,-4,-6,22,-115,21,-6,-2,-10,7,-79,60,clockwise
-92,42,-125,380,1528,-341,-54,75,-43,-100,1300,256,-29,87,28,140,914,533,28,65,47,549,520,679,50,34,36,695,246,329,83,-7,61,611,-276,460,87,-49,49,749,-711,100,67,-98,-1,557,-886,-176,11,-105,-37,63,-870,-660,-31,-87,-46,-359,-724,-889,-56,-44,-45,-422,-478,-957,-75,-11,-65,-597,-225,-877,-71,33,-53,-776,9,-582,-68,54,-44,-719,363,-271,-51,65,-20,-635,592,-63,-41,66,-11,-599,728,108,-16,63,32,-446,813,333,6,47,49,-69,750,415,31,16,59,101,459,488,39,3,45,126,154,449,46,-13,39,194,-130,374,37,-28,17,301,-287,257,21,-33,-4,198,-360,161,7,-16,-9,124,-339,73,-5,-14,-15,170,-277,5,-11,-7,-16,137,-170,-66,-11,-3,-17,44,-142,-5,-5,-1,-6,9,-104,3,-3,-1,-8,-7,-79,7,-1,-1,-1,0,-42,29,clockwise
-106,34,-120,669,1140,-579,-59,45,-74,104,1187,-72,-37,80,-33,132,1135,225,7,65,3,236,937,481,45,52,31,555,603,333,83,19,57,538,95,594,100,-19,73,669,-482,370,86,-68,53,741,-888,141,41,-91,8,549,-1115,-327,-18,-99,-32,70,-1025,-692,-47,-73,-42,-166,-756,-932,-87,-40,-67,-343,-356,-1068,-77,-7,-62,-688,-58,-877,-81,24,-48,-793,214,-620,-64,45,-30,-817,475,-323,-45,61,-18,-818,661,-59,-14,66,16,-649,728,256,-3,50,35,-441,641,422,26,42,53,-151,512,451,39,19,49,17,262,552,34,1,43,160,32,483,33,-14,25,145,-187,411,22,-19,9,216,-260,250,5,-23,0,193,-210,200,0,-15,-8,182,-205,97,-2,-14,-10,162,-197,37,-9,-8,-15,134,-113,-1,-6,-3,-15,108,-55,-77,0,-5,-15,7,-100,16,-4,-2,-8,-3,-71,-33,clockwise
-88,93,-96,455,2045,50,-41,77,-25,317,1469,346,-3,62,15,288,1005,550,25,58,43,570,640,508,40,26,41,645,327,331,73,-17,60,603,-317,299,70,-49,49,645,-757,152,42,-78,9,487,-940,-326,13,-96,-26,71,-934,-524,-22,-77,-42,-221,-782,-738,-49,-49,-44,-351,-514,-880,-67,-21,-61,-487,-192,-792,-62,8,-45,-598,54,-642,-65,32,-37,-621,290,-431,-47,48,-22,-589,476,-146,-40,55,-13,-627,574,9,-13,60,14,-623,633,222,0,59,25,-421,613,389,19,43,36,-199,474,477,23,23,39,-117,327,514,33,13,31,109,100,443,33,-12,26,233,-105,452,21,-24,15,304,-190,243,17,-29,5,281,-225,135,7,-21,-9,271,-293,56,0,-22,-8,185,-258,-6,-6,-8,-15,109,-188,-69,-4,-3,-15,59,-179,-71,-8,3,-13,15,-153,-9,-6,-1,-9,26,-87,-5,clockwise
-57,71,-128,-269,1929,-212,0,88,-54,13,1457,184,6,52,16,114,1110,453,12,44,38,224,707,493,27,33,45,424,397,255,49,5,66,634,-163,314,44,-32,56,682,-557,221,39,-52,14,581,-834,-85,25,-70,-15,396,-855,-400,-6,-76,-35,116,-746,-606,-28,-67,-37,-188,-571,-758,-53,-46,-33,-435,-336,-688,-62,-15,-29,-456,-83,-638,-58,10,-21,-574,108,-522,-50,29,-20,-628,280,-293,-37,45,-13,-515,395,-47,-14,47,-8,-543,468,74,-5,49,5,-466,516,278,9,41,9,-365,499,424,26,33,26,-206,412,332,30,17,32,-138,254,475,28,10,30,55,77,282,37,-4,24,87,-130,334,22,-8,19,263,-170,111,10,-13,2,316,-221,52,6,-11,-10,232,-218,61,0,-10,-14,235,-194,51,-7,-8,-18,188,-109,-35,-2,-8,-16,86,-120,-40,-2,-5,-13,-37,-109,75,clockwise
-107,49,-121,171,1320,-178,-63,45,-51,49,1247,93,-27,65,-15,91,1020,338,0,55,8,241,701,462,20,46,26,379,441,374,66,15,59,589,-6,403,72,-22,47,607,-445,315,62,-67,40,603,-721,17,34,-83,12,446,-817,-270,-1,-95,-14,124,-775,-597,-40,-72,-30,-231,-605,-706,-57,-40,-27,-348,-383,-775,-72,-10,-39,-511,-188,-657,-54,6,-24,-480,21,-525,-54,23,-22,-444,132,-351,-37,28,-19,-430,236,-261,-23,38,-14,-413,347,40,-4,42,-9,-397,466,41,-6,45,-4,-447,517,287,19,39,9,-367,533,360,22,31,23,-191,456,316,36,17,31,-77,261,367,28,11,26,66,94,333,32,-2,32,184,-82,255,15,-1,10,233,-141,90,12,-6,5,187,-218,138,4,-8,-5,204,-180,124,5,-12,-5,168,-225,67,-3,-9,-18,111,-187,8,1,-10,-8,61,-191,70,clockwise
-95,59,-122,-30,1728,-477,-39,66,-57,4,1299,50,-4,59,-4,268,985,325,11,47,15,325,683,452,29,29,29,427,406,231,55,4,53,513,-86,466,57,-32,51,615,-435,300,41,-58,27,491,-692,46,22,-75,8,394,-792,-292,-10,-75,-16,106,-725,-505,-31,-62,-16,69,-607,-784,-48,-44,-25,-235,-402,-815,-61,-26,-36,-577,-221,-736,-52,6,-28,-531,-40,-520,-46,18,-32,-448,147,-556,-34,35,-29,-671,320,-223,-18,52,-16,-541,392,131,-4,53,2,-315,457,196,-4,43,10,-343,447,228,10,37,21,-312,394,472,13,22,21,-45,293,318,21,9,19,-38,201,382,27,7,10,62,120,298,28,-3,3,46,54,325,23,-4,15,145,-27,116,19,-6,12,139,-56,172,8,-5,3,222,-182,105,3,-12,4,206,-234,67,-3,-10,-5,189,-220,-7,-4,-7,-17,101,-211,-57,clockwise
-36,159,-3,491,2865,1306,17,92,45,539,1353,928,30,58,43,742,710,664,38,18,40,753,328,466,39,-5,36,680,59,408,45,-53,28,599,-698,-83,22,-73,3,383,-767,-390,0,-80,-12,72,-716,-550,-24,-63,-25,-195,-584,-717,-44,-41,-35,-375,-396,-747,-54,-21,-43,-456,-186,-657,-51,0,-37,-496,0,-529,-49,19,-32,-522,134,-359,-42,27,-30,-494,339,-185,-25,45,-17,-569,422,-17,-13,56,0,-540,498,158,-3,52,9,-402,481,346,8,43,14,-335,478,316,14,39,26,-247,301,384,20,22,22,-77,253,406,29,3,25,70,115,340,24,-5,21,192,-50,237,29,-9,25,308,-136,167,32,-15,7,330,-237,136,10,-16,-4,365,-318,51,0,-14,-11,239,-312,30,-5,-8,-20,109,-223,12,-10,-5,-25,40,-211,47,-16,-4,-17,-5,-105,11,-4,-3,-7,-24,-39,-3,clockwise
-66,68,-127,109,1986,-366,-26,71,-41,-47,1308,205,1,62,-12,113,1023,401,11,64,4,113,720,502,23,41,29,323,525,268,53,11,65,495,-8,546,60,-27,54,612,-383,317,50,-56,39,589,-727,53,31,-88,18,585,-843,-284,2,-85,-20,256,-878,-635,-27,-68,-40,49,-777,-768,-58,-44,-52,-259,-486,-840,-73,-11,-60,-388,-165,-875,-73,9,-54,-716,120,-551,-63,31,-29,-671,366,-455,-47,40,-21,-836,533,-37,-20,49,9,-647,641,-103,0,45,22,-668,667,371,24,54,43,-337,517,303,36,37,38,-203,252,447,40,21,50,141,43,319,25,5,23,297,-135,383,27,-8,22,418,-254,244,9,-23,-4,388,-290,248,4,-25,-11,306,-202,139,-3,-19,-27,127,-145,57,4,-12,-14,20,-119,98,-3,-6,-16,-20,-109,26,0,-2,-4,-25,-58,39,0,0,-4,-20,-36,2,clockwise
-67,147,-37,38,2362,646,2,110,19,213,1151,777,15,71,45,309,666,801,29,40,46,483,404,648,33,15,42,548,227,375,57,-38,44,741,-443,105,34,-73,14,583,-577,-136,15,-85,-18,379,-676,-493,-12,-79,-39,111,-667,-702,-35,-65,-50,-128,-573,-908,-60,-40,-55,-514,-320,-767,-56,-7,-44,-523,-95,-725,-55,19,-35,-608,211,-518,-42,44,-20,-731,414,-354,-22,59,-5,-721,548,0,-10,66,0,-592,639,92,6,64,21,-499,702,328,28,55,29,-379,639,532,45,34,51,-52,429,590,46,12,46,196,92,474,41,-8,43,326,-215,380,32,-21,18,416,-401,233,11,-32,0,505,-547,161,-9,-30,-25,358,-491,16,-18,-24,-32,213,-295,-20,-13,-11,-24,80,-131,-106,-17,-7,-15,-8,-84,12,-7,-2,0,-58,-22,4,-2,0,4,-67,2,-26,-2,0,4,-84,15,40,clockwise
-31,139,-78,-258,1634,787,-10,91,-11,172,1072,671,12,78,30,223,709,652,35,44,33,465,436,606,34,14,33,441,230,553,52,-38,54,568,-300,244,49,-66,38,477,-602,1,27,-92,2,378,-735,-284,-5,-87,-18,85,-746,-527,-26,-65,-39,-103,-647,-726,-50,-31,-50,-172,-436,-830,-65,-4,-64,-370,-167,-750,-66,23,-63,-557,97,-557,-53,36,-32,-547,370,-275,-52,47,-21,-541,535,-228,-29,50,-2,-653,655,52,-16,51,26,-520,661,272,9,40,53,-301,498,323,16,36,32,-187,284,322,42,16,40,4,99,340,42,3,32,143,-84,291,36,-10,14,268,-218,254,23,-14,-2,302,-228,131,13,-18,-3,245,-221,62,0,-10,-14,200,-190,69,-9,-10,-20,155,-147,18,-5,-7,-13,51,-97,18,-5,-3,-9,24,-52,35,-1,-1,-6,12,-29,6,-1,0,-2,-30,-23,17,clockwise
86,28,131,-232,-639,-315,30,64,61,257,-581,-136,9,68,32,222,-568,136,-1,47,7,378,-455,251,-27,31,-13,274,-352,265,-37,15,-56,348,-133,390,-36,-19,-64,95,135,630,-25,-59,-63,-72,444,479,-2,-71,-47,-389,708,328,36,-86,-14,-502,833,65,40,-73,19,-597,793,-141,53,-54,42,-727,607,-349,53,-13,68,-585,295,-561,36,14,75,-424,-101,-626,27,53,72,-236,-375,-719,13,64,58,3,-572,-491,-4,68,47,392,-714,-499,-21,58,6,382,-772,-193,-24,39,-16,483,-703,-67,-37,17,-44,437,-533,126,-47,2,-63,302,-297,222,-40,-17,-63,152,-18,351,-24,-26,-44,127,245,234,-15,-27,-23,37,415,269,-2,-21,-3,2,413,52,13,-16,14,-25,321,60,13,-3,15,-63,220,35,12,0,17,27,140,-47,6,5,9,-18,38,-43,3,4,6,31,8,-14,notClockwise
93,-6,131,-195,-598,-338,31,58,63,169,-673,-200,5,65,20,316,-657,24,-5,50,1,331,-511,218,-18,27,-26,255,-359,255,-42,16,-59,176,-118,428,-35,-20,-59,19,200,562,-26,-51,-56,-169,513,540,-6,-65,-36,-324,714,302,18,-67,-6,-433,789,175,30,-58,17,-396,767,-86,35,-42,35,-555,543,-306,40,-16,70,-360,301,-430,26,-6,63,-378,-6,-524,28,21,70,-290,-274,-646,17,36,59,-57,-483,-450,12,43,38,176,-595,-578,-2,44,8,212,-705,-302,-12,50,-13,325,-656,-131,-29,37,-27,436,-515,-107,-36,16,-52,285,-397,207,-39,4,-51,319,-176,135,-30,-13,-53,101,91,243,-15,-16,-31,109,270,202,-4,-21,-21,38,348,205,8,-10,2,1,364,41,14,-9,10,-39,314,102,15,-2,16,-5,207,54,12,-2,15,-18,93,4,6,4,9,-21,18,-27,notClockwise
104,4,132,-561,-499,-140,49,57,71,105,-684,-142,21,75,28,312,-663,-2,9,56,1,401,-545,181,-13,43,-19,382,-395,294,-43,19,-64,431,-225,376,-41,-16,-67,158,126,524,-27,-62,-59,-63,423,584,-23,-75,-39,-306,638,389,7,-85,-7,-582,733,182,17,-63,20,-684,760,55,30,-45,43,-540,577,-197,24,-22,50,-476,374,-393,28,-4,57,-412,112,-450,21,11,56,-238,-112,-498,25,23,51,-99,-284,-599,6,35,31,-59,-370,-537,11,51,32,87,-472,-499,6,54,17,203,-596,-324,-6,52,-10,325,-686,-128,-18,36,-30,436,-634,17,-25,15,-50,443,-479,78,-35,-1,-61,289,-267,305,-33,-17,-56,236,64,292,-21,-25,-32,131,362,216,-11,-18,-15,52,443,109,6,-13,8,-10,412,142,11,-11,15,-39,346,62,14,-2,18,-36,226,44,11,2,11,-17,103,-11,notClockwise
100,23,120,36,-759,-568,43,51,64,174,-806,-291,15,73,24,379,-634,-62,-1,54,-7,324,-483,207,-19,38,-23,340,-328,219,-44,12,-56,232,-59,524,-36,-18,-59,120,269,582,-22,-63,-47,-118,489,669,-5,-79,-25,-358,632,377,16,-80,6,-616,689,190,31,-54,21,-685,570,-31,27,-34,41,-624,417,-332,22,-12,51,-562,217,-465,15,12,60,-371,24,-592,17,26,52,-131,-187,-537,10,34,53,131,-305,-638,1,34,32,200,-437,-435,1,39,14,268,-547,-344,0,31,-6,419,-579,-249,-10,24,-23,327,-534,-120,-13,14,-38,345,-442,-24,-17,8,-50,199,-321,124,-23,5,-51,134,-158,133,-19,-3,-37,54,45,277,-10,-6,-21,95,235,162,-11,-9,-17,14,338,147,4,-9,2,83,392,197,11,-11,14,84,393,110,11,-4,9,3,259,36,10,-1,9,11,142,-37,notClockwise
69,76,131,-216,-1221,-422,27,76,48,196,-814,-227,0,67,3,298,-580,64,-12,50,-18,306,-434,288,-17,26,-24,227,-300,356,-32,-7,-58,234,45,507,-32,-41,-50,32,270,635,-22,-69,-33,-104,457,505,-9,-80,-15,-299,607,311,4,-69,4,-469,657,38,14,-53,18,-586,592,-152,26,-26,38,-457,440,-414,26,-16,41,-540,207,-522,26,11,63,-406,-10,-512,20,25,45,-353,-158,-496,19,42,51,-89,-306,-618,8,50,33,-32,-400,-397,4,58,30,313,-503,-388,0,39,-14,204,-540,-40,1,34,-3,552,-585,-133,-13,16,-27,434,-459,64,-17,2,-40,447,-405,27,-15,-8,-52,124,-214,380,-18,-5,-28,271,-22,43,-24,-14,-39,56,160,221,-13,-13,-23,87,237,78,-7,-21,-8,-56,355,231,0,-8,5,17,374,51,5,-7,8,-33,294,50,10,-3,15,-52,200,17,notClockwise
84,33,129,305,-610,-719,37,69,73,374,-677,-264,13,67,29,226,-601,86,0,50,4,301,-501,282,-16,32,-10,312,-349,146,-36,14,-50,207,-117,473,-36,-16,-60,102,208,628,-27,-50,-51,12,463,628,-10,-65,-36,-199,666,325,16,-76,-9,-463,715,212,25,-65,12,-597,677,-6,33,-53,32,-717,517,-129,36,-23,60,-606,273,-435,32,-6,62,-510,17,-486,22,27,62,-334,-181,-572,15,33,49,-154,-345,-567,14,48,43,90,-497,-626,5,46,16,236,-556,-420,-2,52,7,399,-672,-320,-16,34,-19,479,-677,-165,-29,28,-31,530,-582,-96,-37,3,-52,438,-353,93,-32,-1,-53,249,-119,210,-30,-15,-48,94,179,224,-14,-14,-30,-1,372,182,7,-21,-9,33,435,194,13,-17,5,-68,341,113,9,-6,12,-70,283,50,10,3,16,-26,213,53,7,4,11,-16,132,-12,notClockwise
75,62,132,376,-952,-371,19,92,52,601,-779,-5,-3,63,15,466,-619,297,-10,36,-10,538,-441,370,-27,13,-21,387,-290,246,-33,-9,-55,276,0,446,-26,-48,-56,8,259,612,-12,-69,-42,-162,479,379,1,-72,-22,-478,595,200,24,-70,2,-619,636,34,21,-54,16,-796,580,-83,26,-31,42,-726,433,-329,22,-10,49,-572,197,-427,27,14,56,-507,-30,-510,21,39,49,-280,-197,-461,21,43,47,101,-285,-595,14,43,23,172,-394,-497,10,48,14,241,-478,-311,-8,42,-1,426,-516,-211,-9,32,-15,553,-591,-201,-16,19,-32,334,-577,98,-16,9,-37,398,-483,234,-13,-3,-39,378,-296,196,-18,-14,-45,269,-101,185,-17,-18,-33,84,159,238,-16,-17,-17,75,310,162,-13,-14,-6,-4,424,86,-9,-12,3,-81,455,46,0,-9,14,-84,403,-4,7,-7,16,-97,291,20,notClockwise
56,83,124,-104,-474,-131,42,59,70,204,-514,-39,8,65,26,254,-508,138,-9,56,2,437,-418,218,-13,39,-9,402,-284,273,-30,6,-43,476,-143,365,-37,-18,-54,200,57,543,-19,-51,-37,27,279,409,-4,-67,-24,-231,425,326,4,-75,-10,-370,501,141,17,-66,1,-594,545,44,26,-51,15,-634,479,-106,22,-24,25,-579,383,-254,19,-14,37,-587,243,-314,26,13,48,-590,44,-348,16,28,46,-440,-106,-439,23,49,56,-224,-172,-508,30,53,36,-38,-270,-479,23,54,27,247,-459,-381,3,41,9,362,-598,-306,2,38,-3,640,-684,-180,-21,10,-47,555,-664,-60,-37,1,-44,360,-650,87,-27,-6,-49,306,-359,297,-20,-11,-48,189,-23,38,-20,-12,-42,-65,208,176,-12,-8,-8,44,326,237,-3,-13,-2,84,479,78,-3,-6,0,-54,430,121,2,-4,5,23,334,11,notClockwise
62,20,143,-426,-94,-234,46,60,94,263,-417,-143,10,67,46,281,-507,98,-1,62,13,486,-455,212,-10,33,-7,379,-352,333,-33,13,-51,463,-247,376,-39,-25,-69,147,25,594,-24,-59,-61,-64,325,424,-12,-81,-40,-382,559,480,7,-76,-10,-553,662,124,18,-64,11,-713,673,-28,24,-44,35,-739,559,-180,24,-19,49,-649,359,-431,25,1,63,-566,102,-532,22,23,57,-388,-94,-624,25,40,54,-174,-271,-653,21,50,48,148,-370,-684,19,47,35,423,-507,-573,4,39,-1,349,-534,-357,-3,42,-17,363,-564,-155,-10,26,-30,382,-546,89,-19,11,-48,157,-493,260,-29,4,-54,90,-288,415,-20,-3,-38,239,-53,385,-21,-22,-31,215,151,289,-17,-22,-19,118,312,280,-8,-19,-9,167,399,50,5,-14,1,8,405,3,3,-6,6,-36,297,-24,6,0,10,-18,215,-30,notClockwise
49,78,129,11,-775,-80,4,91,55,91,-776,237,-7,80,12,529,-633,393,-17,39,-14,365,-456,549,-18,19,-20,408,-287,396,-33,-15,-63,272,-13,586,-25,-57,-59,86,315,453,-14,-84,-41,-286,536,405,0,-79,-16,-414,666,-11,9,-68,8,-769,679,-108,16,-46,32,-748,549,-245,16,-18,39,-570,360,-444,16,-1,51,-500,131,-487,20,22,55,-347,-87,-480,18,30,43,-155,-279,-502,11,36,36,11,-331,-561,15,41,31,32,-393,-467,13,59,26,272,-437,-450,3,43,-2,341,-500,-161,2,31,-14,433,-499,-85,-1,21,-30,348,-439,94,-7,11,-38,467,-335,126,-21,-11,-68,202,-169,314,-21,-15,-46,151,33,293,-23,-15,-36,54,216,281,-12,-13,-11,124,311,133,-5,-16,0,-30,326,154,8,-10,25,55,323,58,9,-2,21,-5,260,84,13,2,20,18,180,-68,notClockwise
78,56,144,-11,-851,-305,36,68,73,126,-923,89,-1,83,26,246,-796,377,-15,55,-10,542,-556,403,-25,20,-35,415,-337,297,-41,-9,-78,293,-3,555,-38,-44,-71,84,395,693,-14,-84,-57,-174,716,317,6,-86,-20,-645,843,178,28,-65,18,-836,852,14,37,-41,47,-792,696,-308,38,-21,59,-685,368,-620,43,15,75,-557,4,-701,34,36,66,-269,-290,-719,26,52,63,-45,-521,-757,10,58,38,233,-684,-587,0,59,16,373,-758,-314,-22,37,-23,482,-718,-188,-24,20,-38,348,-629,187,-34,7,-51,406,-510,234,-35,-9,-54,286,-203,399,-27,-15,-49,218,152,268,-13,-20,-24,172,377,357,-8,-20,-8,170,474,182,2,-17,0,71,495,49,10,-12,16,-21,357,24,11,-6,16,-41,202,-52,6,2,13,-56,81,-41,4,5,9,-20,24,-46,1,2,4,15,-6,-27,notClockwise
91,22,134,118,-408,-249,44,48,73,144,-638,-30,11,59,28,50,-683,203,-3,52,6,408,-545,216,-13,30,-20,342,-378,231,-40,12,-64,328,-159,374,-40,-21,-72,118,222,653,-24,-51,-52,37,579,383,-7,-73,-35,-398,737,451,6,-70,6,-601,781,132,28,-62,33,-835,654,44,26,-31,49,-789,402,-307,27,-14,60,-626,120,-538,19,11,56,-506,-106,-705,20,35,50,-256,-312,-714,8,50,41,132,-481,-719,7,48,29,353,-616,-620,-1,51,1,404,-657,-306,-7,43,-17,616,-606,-135,-18,22,-47,443,-528,127,-21,6,-53,377,-289,272,-25,-12,-57,247,9,434,-17,-23,-43,209,235,228,-10,-26,-25,-53,360,373,0,-19,3,76,439,133,3,-12,8,-37,396,91,14,-4,17,-32,285,-43,6,2,15,-101,166,4,7,6,19,3,84,-35,5,3,7,0,16,-54,notClockwise
58,36,144,213,-435,-185,35,50,62,282,-522,-83,4,61,37,366,-586,66,-11,45,-3,417,-507,233,-12,33,-20,303,-382,403,-35,0,-64,254,-158,534,-33,-32,-62,55,155,591,-22,-66,-57,-241,521,457,-5,-76,-26,-511,761,456,7,-77,5,-669,864,-10,24,-46,32,-793,740,-242,35,-21,58,-626,446,-496,34,0,57,-517,125,-646,33,23,67,-354,-213,-678,27,44,58,-66,-460,-615,17,47,39,193,-581,-591,-10,48,11,197,-628,-378,-9,45,0,374,-625,-207,-15,31,-25,395,-534,-13,-25,14,-43,437,-450,96,-22,0,-46,282,-317,172,-11,-8,-48,282,-97,267,-18,-12,-41,126,76,377,-14,-15,-24,124,236,149,-2,-15,-7,6,375,199,2,-10,4,33,409,121,7,-9,16,-34,343,64,12,-5,17,18,250,-1,11,0,16,-2,157,-55,6,1,7,-16,44,-58,notClockwise
39,81,146,361,-641,-395,24,65,63,401,-752,-101,6,63,13,289,-719,214,-1,44,-17,401,-558,368,-12,17,-27,254,-341,335,-28,-13,-65,108,-32,516,-29,-39,-58,-90,374,659,-19,-67,-38,-232,688,455,-10,-71,-6,-521,841,244,10,-57,20,-606,822,1,16,-45,34,-653,662,-242,32,-15,66,-475,287,-533,27,1,61,-443,26,-635,28,17,56,-264,-226,-670,11,37,42,-92,-409,-616,13,53,46,176,-578,-572,-8,37,-3,186,-576,-261,-8,40,-7,318,-633,-191,-23,29,-32,346,-588,16,-15,14,-34,425,-488,120,-21,-6,-57,266,-262,270,-13,-7,-42,178,-16,219,-12,-11,-39,221,216,155,0,-12,-13,111,354,179,0,-13,-7,3,396,130,7,-5,8,35,337,90,5,-2,10,29,238,-47,6,-1,13,-50,147,47,4,1,8,0,72,5,3,1,5,15,26,-16,notClockwise
113,-11,111,-166,-502,-543,59,27,56,17,-517,-324,27,40,43,-23,-617,-71,12,61,12,334,-545,51,3,36,-4,207,-449,183,-37,40,-43,414,-244,354,-38,6,-61,276,-58,635,-31,-25,-66,190,301,490,-21,-69,-50,-206,572,691,-3,-73,-26,-276,752,191,21,-85,-5,-695,755,147,25,-59,31,-742,740,-120,30,-34,60,-703,490,-420,29,-7,63,-646,152,-586,19,22,63,-510,-136,-617,17,45,67,-246,-359,-708,12,59,54,150,-505,-664,0,55,14,341,-609,-441,-8,49,1,433,-632,-249,-20,40,-22,569,-561,-76,-29,13,-48,556,-386,23,-30,-3,-58,321,-220,243,-23,-18,-45,258,27,345,-13,-19,-36,148,226,192,0,-25,-16,32,310,288,4,-15,4,-15,303,198,10,-16,12,-12,251,53,11,-4,10,-90,171,73,8,0,15,34,128,-27,5,-2,9,-75,65,7,notClockwise
71,68,123,-192,-652,-366,32,77,57,115,-714,33,5,75,17,392,-588,198,-10,40,-10,522,-463,224,-13,23,-23,405,-338,120,-32,-5,-62,384,-95,420,-30,-33,-56,223,249,487,-21,-64,-46,-22,505,310,-5,-61,-17,-343,683,296,2,-63,9,-474,765,121,16,-51,34,-596,690,6,18,-34,46,-678,470,-249,28,-11,62,-526,178,-411,23,5,51,-486,-73,-497,24,29,49,-397,-284,-578,13,41,39,-115,-422,-471,12,48,28,186,-504,-561,0,45,5,217,-518,-269,-2,38,-4,367,-519,-153,-15,24,-30,460,-454,-64,-15,9,-40,361,-349,40,-20,-6,-50,222,-194,171,-19,-6,-44,83,-11,245,-17,-8,-31,78,169,152,-5,-10,-11,56,256,180,0,-5,0,56,288,143,6,-5,4,67,270,86,11,-6,12,45,216,42,10,-4,8,18,132,35,8,0,5,-11,75,-4,notClockwise
88,67,143,-82,-977,-461,43,61,73,403,-977,-224,13,57,21,337,-802,27,1,48,-1,378,-609,192,-9,34,-19,321,-440,255,-33,-1,-64,263,-122,504,-35,-29,-59,12,276,646,-27,-53,-44,-95,573,497,-16,-72,-24,-312,764,394,-2,-79,7,-532,829,196,9,-56,27,-636,744,-103,18,-33,39,-644,538,-381,20,-15,47,-620,250,-540,29,11,61,-479,-34,-581,25,31,44,-351,-213,-635,23,45,45,-34,-340,-627,17,46,24,131,-456,-469,7,49,14,272,-531,-349,-6,40,-19,257,-554,-45,-9,33,-20,500,-551,-9,-22,14,-42,435,-490,177,-26,4,-42,336,-338,252,-19,-10,-46,348,-87,341,-15,-20,-30,277,145,202,-13,-24,-24,103,276,138,2,-18,0,27,350,192,4,-13,1,22,341,1,7,-7,15,-87,267,42,1,-2,14,-49,155,-51,2,0,16,-43,96,-24,notClockwise
114,54,107,64,-706,-553,54,49,58,100,-753,-172,28,72,21,297,-670,17,5,52,-1,334,-532,210,-3,44,-13,360,-403,202,-32,11,-54,336,-199,565,-34,-14,-62,226,139,559,-28,-57,-52,-23,406,577,-14,-70,-34,-233,619,447,0,-85,-7,-530,716,195,9,-71,15,-812,674,-63,20,-37,44,-714,544,-265,18,-26,51,-647,341,-532,22,2,59,-585,87,-644,16,26,47,-387,-156,-598,19,52,56,-36,-282,-745,5,48,26,119,-439,-572,4,61,18,308,-524,-455,-6,53,-4,469,-582,-260,-13,41,-20,548,-539,-32,-19,13,-44,452,-430,108,-13,-2,-39,320,-308,332,-13,-16,-47,205,-138,332,-1,-23,-34,99,89,284,1,-24,-25,52,260,292,3,-15,-5,38,332,226,0,-13,0,1,367,3,5,0,11,-50,347,59,0,0,14,-4,221,-36,0,-1,16,-31,127,26,notClockwise
57,45,150,43,-384,-265,34,55,80,149,-623,-62,13,66,37,236,-644,135,3,52,3,451,-561,194,-8,30,-22,317,-411,211,-27,4,-68,281,-183,391,-30,-25,-72,34,201,598,-28,-53,-62,-170,543,408,-8,-65,-32,-447,773,339,12,-69,9,-478,868,81,26,-54,28,-663,751,-25,29,-32,56,-544,489,-345,45,-13,74,-396,122,-577,29,5,64,-409,-114,-658,16,34,50,-273,-383,-607,13,44,54,51,-530,-637,7,53,19,214,-635,-542,-12,55,-3,280,-623,-231,-25,47,-25,457,-636,-86,-25,22,-39,353,-491,192,-35,9,-63,339,-253,285,-26,-16,-50,215,11,426,-17,-29,-47,48,239,279,0,-29,-15,13,357,366,5,-18,0,49,388,52,11,-11,17,-2,291,9,8,0,15,59,170,-30,6,3,16,81,97,-107,5,2,7,43,60,-19,0,1,0,3,20,-72,notClockwise
100,2,133,258,-289,-582,59,36,72,261,-418,-345,34,49,49,157,-557,-89,11,60,19,376,-488,59,-2,45,-1,292,-415,150,-31,33,-45,360,-318,375,-35,0,-62,174,-96,654,-33,-38,-63,84,257,563,-19,-71,-45,-266,503,631,-3,-80,-19,-412,666,256,7,-75,4,-718,708,200,13,-55,35,-671,611,-139,15,-29,51,-650,392,-394,11,-4,57,-555,114,-584,13,17,55,-406,-142,-618,6,38,48,-154,-320,-729,6,46,35,97,-413,-652,1,54,19,278,-461,-535,-1,50,-2,451,-463,-340,-9,43,-21,544,-408,-122,-10,18,-33,467,-346,50,-8,2,-39,380,-256,238,-11,-11,-52,261,-104,246,-6,-15,-43,132,56,222,-4,-22,-30,-19,205,320,4,-13,-6,9,307,222,0,-6,0,-43,330,103,7,-2,15,-32,268,19,9,-4,21,-29,190,107,7,-1,17,32,96,61,notClockwise
73,71,140,-96,-728,-360,29,73,70,60,-768,-21,0,86,37,600,-603,-16,-13,51,-24,417,-474,208,-19,32,-39,257,-263,242,-31,-5,-66,140,89,705,-23,-37,-67,44,474,433,-4,-77,-51,-440,682,560,12,-75,3,-570,778,330,28,-70,38,-631,691,100,26,-45,43,-607,461,-353,30,-17,57,-497,194,-512,27,6,60,-418,-88,-650,25,29,48,-195,-286,-709,11,46,42,24,-481,-631,1,59,32,283,-650,-510,-18,49,2,287,-732,-244,-31,42,-21,473,-645,-149,-37,24,-32,439,-517,72,-33,4,-53,402,-331,194,-26,-16,-57,233,-47,251,-15,-21,-39,193,221,276,0,-25,-24,20,358,247,5,-20,-8,6,415,120,10,-17,10,-73,406,100,12,-5,21,-51,305,11,14,-1,21,-55,151,45,7,3,17,9,59,-69,3,1,9,0,-14,-21,0,3,1,32,-35,-11,notClockwise
103,30,129,-278,-839,-465,39,85,74,240,-834,-245,4,79,16,473,-725,-66,-7,60,-24,365,-550,234,-17,31,-37,317,-339,312,-38,2,-64,247,17,569,-30,-40,-67,26,404,495,-10,-72,-46,-305,693,608,1,-82,-8,-491,847,393,16,-71,21,-637,819,116,22,-42,40,-642,623,-219,30,-21,52,-612,356,-401,23,1,57,-531,79,-487,26,23,62,-395,-214,-617,30,48,63,-106,-408,-646,17,46,42,112,-512,-592,0,47,23,337,-662,-419,-11,42,-1,462,-695,-223,-23,29,-28,593,-560,-205,-32,4,-51,399,-404,79,-25,3,-48,380,-266,179,-22,-13,-52,117,-36,308,-14,-11,-32,115,147,178,-4,-17,-13,17,250,283,-4,-13,-7,-4,270,137,-2,-16,1,-37,277,182,5,-7,13,32,273,-11,7,-7,12,-38,220,20,5,0,9,-29,127,-29,7,0,11,4,77,-32,notClockwise
80,53,130,120,-1048,-262,34,56,54,406,-856,-152,6,55,11,376,-705,1,-6,36,-9,355,-507,141,-15,31,-25,279,-336,215,-39,-1,-51,148,17,422,-39,-18,-49,-69,320,531,-24,-44,-34,-125,569,473,-6,-49,-19,-300,715,353,12,-66,8,-453,754,326,25,-46,17,-497,642,52,32,-43,33,-484,464,-276,33,-23,49,-564,164,-400,29,-4,59,-437,-106,-494,19,21,54,-301,-281,-638,15,36,46,-66,-430,-708,4,49,29,143,-536,-575,-3,51,9,261,-541,-421,-10,43,-11,399,-516,-210,-16,32,-31,344,-545,-24,-18,20,-39,446,-489,71,-18,0,-51,151,-327,380,-18,-4,-42,220,-76,320,-17,-18,-36,139,156,309,-4,-19,-17,155,343,77,-2,-20,-10,-40,465,278,5,-13,10,85,431,52,8,-13,10,-33,329,-85,9,1,13,-87,162,-30,3,3,11,-21,69,-35,notClockwise
78,69,115,401,-1116,-331,28,72,46,312,-845,2,2,65,-2,480,-697,140,-9,36,-21,316,-520,329,-14,21,-32,286,-322,272,-34,-11,-58,111,102,578,-32,-38,-55,-19,420,468,-14,-64,-33,-270,694,498,0,-64,-6,-416,815,261,16,-60,17,-641,781,97,23,-41,40,-597,583,-209,33,-27,56,-602,290,-437,30,-4,60,-551,-7,-576,29,20,59,-304,-280,-636,14,38,58,-27,-435,-686,7,45,34,108,-572,-548,-6,49,10,288,-576,-521,-13,50,-4,464,-587,-307,-22,34,-28,420,-515,-80,-16,19,-45,359,-455,119,-18,5,-52,288,-261,268,-11,-5,-39,275,-68,236,-12,-18,-35,92,171,373,-3,-19,-20,87,344,313,0,-22,-5,43,424,242,5,-14,12,-4,370,66,6,-9,11,-58,279,36,8,-3,17,-16,168,-21,4,0,14,-40,44,-31,1,3,8,7,-6,-35,notClockwise
93,34,129,-81,-534,-536,53,47,80,263,-582,-329,29,63,37,465,-622,-191,11,42,6,384,-539,-13,2,39,-6,271,-448,110,-28,16,-55,284,-285,445,-35,-12,-63,5,12,606,-33,-49,-54,-235,356,620,-21,-61,-37,-377,614,625,-9,-75,-13,-507,790,351,9,-67,16,-643,820,183,16,-47,35,-592,646,-251,20,-23,45,-600,373,-472,19,2,56,-511,101,-623,20,19,54,-297,-145,-703,21,40,46,-142,-374,-679,17,50,32,47,-534,-563,6,56,19,393,-557,-445,-6,42,-5,542,-610,-249,-15,37,-32,421,-599,2,-21,19,-35,568,-404,208,-27,-2,-48,398,-159,176,-20,-16,-48,197,-12,227,-9,-17,-34,61,215,338,-4,-23,-15,82,372,190,-3,-19,-3,-46,371,148,7,-11,10,11,303,-8,10,-7,15,-65,244,6,11,1,15,-42,134,18,9,2,13,0,43,-44,notClockwise
101,-9,139,144,-860,-841,50,61,80,371,-847,-444,17,77,9,359,-775,-37,3,59,-10,329,-658,289,-10,23,-32,242,-483,297,-36,7,-64,134,-116,606,-37,-34,-68,-55,290,728,-29,-73,-44,-213,648,644,-17,-83,-20,-401,898,350,4,-68,15,-567,947,53,17,-42,27,-606,770,-220,25,-28,59,-518,436,-491,26,-5,56,-546,103,-585,28,17,63,-388,-227,-617,16,39,49,-146,-405,-659,11,42,44,147,-511,-618,-4,47,8,158,-564,-425,-12,46,2,326,-604,-243,-14,38,-15,482,-520,-64,-9,21,-27,516,-450,63,-17,4,-45,316,-401,232,-13,-2,-48,393,-203,298,-5,-16,-43,252,54,217,-9,-21,-39,94,244,188,-9,-22,-22,-22,342,193,-3,-14,1,-40,453,-12,2,-8,15,-130,426,89,5,0,21,-46,312,0,7,0,20,-34,153,-44,6,3,15,-11,59,-21,notClockwise
78,-34,133,-7,-391,-469,67,17,73,38,-428,-436,42,53,53,200,-643,-198,11,61,14,434,-620,-35,3,50,-9,232,-541,225,-23,36,-56,297,-409,394,-39,4,-66,147,-108,722,-38,-38,-72,-33,321,581,-19,-71,-45,-372,614,720,-15,-84,-22,-472,852,381,7,-65,14,-692,963,98,20,-48,28,-776,817,-200,24,-26,45,-660,555,-498,31,-1,67,-542,156,-616,42,24,77,-350,-181,-751,23,38,49,-98,-475,-701,12,55,51,279,-711,-712,1,61,30,462,-806,-451,-15,47,-19,482,-759,-185,-30,33,-43,596,-652,-4,-30,10,-52,512,-446,228,-27,-9,-62,361,-131,260,-21,-26,-56,149,137,405,-13,-26,-29,87,422,269,-2,-25,-10,-17,517,189,7,-14,15,-40,461,80,7,-9,20,-59,318,52,10,-2,21,-62,181,-29,8,1,13,-45,57,-16,3,2,5,-111,-6,-16,notClockwise
120,12,102,854,-655,-720,44,29,85,392,-596,-326,15,65,30,469,-686,-97,2,50,2,420,-605,143,-7,39,-14,487,-458,107,-43,16,-62,252,-176,509,-35,-10,-74,140,154,579,-28,-56,-58,-142,552,670,-13,-67,-36,-314,811,415,3,-76,-2,-610,921,206,26,-59,29,-741,848,-36,27,-37,51,-692,552,-347,37,-8,67,-570,193,-603,33,14,69,-466,-96,-697,22,36,56,-231,-338,-693,15,50,54,56,-516,-685,8,52,28,262,-618,-465,-6,44,0,380,-644,-263,-15,31,-23,474,-692,-41,-22,11,-47,383,-619,138,-32,2,-53,346,-452,265,-27,-10,-57,248,-137,299,-19,-13,-43,204,148,291,-17,-21,-27,105,382,256,-2,-13,-1,100,482,79,8,-17,8,69,456,83,8,-9,15,-20,309,-31,7,-6,16,-34,178,-39,11,3,16,-7,90,-52,6,4,8,-4,19,-54,notClockwise
74,-40,131,176,-477,-277,64,36,76,99,-488,-227,37,35,53,149,-692,-101,10,56,12,428,-647,-14,2,37,-11,228,-543,207,-26,40,-54,286,-335,409,-44,-5,-70,163,-27,626,-40,-28,-73,-31,418,515,-25,-65,-47,-403,732,689,-12,-68,-16,-491,909,397,13,-69,11,-729,907,53,31,-47,42,-763,718,-190,33,-29,53,-654,429,-532,37,-2,59,-545,55,-669,37,23,70,-285,-226,-789,25,42,55,-48,-427,-720,4,55,37,317,-617,-663,-8,62,21,439,-690,-377,-19,48,-1,588,-651,-153,-30,23,-38,515,-559,123,-32,2,-46,450,-481,251,-26,-15,-53,277,-205,283,-18,-24,-49,139,48,292,-10,-27,-34,35,260,315,-2,-19,-9,59,363,143,5,-10,7,14,394,1,7,-2,14,-46,305,57,10,-2,16,19,179,-7,10,0,16,-18,98,3,4,1,7,-23,31,-27,notClockwise
101,2,123,-38,-541,-543,52,54,88,116,-634,-232,12,77,28,376,-634,-3,0,64,0,299,-549,296,-13,42,-16,345,-373,297,-39,18,-59,284,-135,597,-41,-19,-78,116,209,583,-22,-66,-61,-190,548,699,-7,-89,-38,-439,803,373,16,-89,-6,-696,848,68,38,-57,32,-780,732,-239,41,-36,58,-752,462,-479,35,-5,69,-641,124,-659,33,32,79,-373,-213,-766,19,55,65,-117,-435,-745,-6,54,43,191,-586,-602,-16,57,17,382,-619,-436,-17,52,0,557,-598,-218,-29,27,-34,564,-523,1,-29,7,-47,456,-428,244,-22,-5,-51,390,-190,263,-16,-23,-50,243,31,291,-13,-29,-35,42,224,308,-2,-25,-10,14,346,263,2,-14,5,1,377,13,8,-8,14,-52,295,76,9,0,19,-28,181,17,9,2,15,23,91,-21,4,1,6,4,40,-18,3,0,4,20,13,-10,notClockwise
88,55,126,87,-648,-474,45,57,83,145,-562,-271,14,57,48,331,-544,-114,-6,65,11,512,-488,42,-15,37,-12,415,-419,155,-36,22,-59,399,-201,495,-38,-19,-79,96,98,669,-13,-51,-70,-295,516,593,17,-87,-47,-690,771,484,37,-76,-2,-870,874,191,45,-70,35,-999,708,-47,49,-27,74,-788,392,-497,27,10,72,-532,-52,-706,12,41,83,-215,-344,-830,-9,60,62,193,-525,-676,-17,57,34,437,-656,-571,-31,50,-8,593,-674,-303,-31,28,-29,709,-556,-147,-39,9,-62,537,-398,74,-21,-16,-61,379,-168,306,-20,-21,-53,117,145,318,-5,-26,-27,32,360,206,5,-22,-3,-81,403,237,13,-17,17,-29,316,108,6,-6,15,-151,203,106,8,1,16,24,113,-27,5,1,7,-14,50,-26,1,4,2,62,10,-43,-2,0,0,0,48,1,0,0,0,8,37,-23,notClockwise
84,24,146,-83,-446,-302,35,50,72,225,-542,-191,11,56,40,337,-608,-41,-3,56,-1,413,-536,132,-12,38,-27,241,-409,329,-42,10,-75,179,-118,529,-30,-22,-72,-24,300,608,-7,-57,-69,-283,708,468,11,-81,-31,-658,904,488,33,-78,17,-657,949,27,47,-54,49,-666,676,-326,42,-22,70,-579,265,-653,34,12,78,-431,-120,-740,19,43,73,-87,-424,-828,-3,61,54,158,-675,-716,-9,72,30,396,-790,-517,-26,54,-17,567,-793,-206,-37,33,-41,456,-670,106,-34,9,-56,505,-421,243,-25,-18,-63,305,-87,392,-15,-36,-46,153,199,286,-1,-32,-20,-54,379,378,3,-22,2,70,406,119,9,-14,12,-101,365,57,12,-1,16,-53,234,-41,6,5,12,-40,138,-10,2,4,11,-14,74,-46,0,4,7,7,42,17,1,0,1,38,9,1,0,0,0,27,-4,3,notClockwise
89,64,133,310,-790,-850,18,83,51,191,-701,-221,-5,77,7,303,-614,123,-16,51,-13,261,-481,390,-24,25,-25,246,-271,213,-39,-1,-63,91,74,644,-25,-39,-59,15,427,573,-3,-68,-44,-236,723,513,17,-74,-12,-447,862,170,38,-58,17,-580,806,-78,48,-47,46,-600,558,-314,44,-22,60,-562,239,-535,37,2,67,-440,-85,-593,27,31,64,-174,-325,-648,8,43,51,-7,-541,-537,-11,54,31,182,-708,-479,-20,52,7,354,-765,-240,-29,37,-10,437,-694,-49,-35,17,-40,391,-563,60,-35,1,-54,336,-381,223,-18,-13,-48,294,-36,200,-18,-22,-48,101,207,263,-9,-17,-27,72,322,113,-1,-18,-8,0,382,113,9,-10,9,-4,398,64,2,-3,6,-51,278,-9,11,0,20,5,187,13,7,0,13,-10,113,13,4,2,7,20,35,-57,3,0,3,-3,-2,13,notClockwise
91,12,155,-7,-538,-316,55,39,99,330,-660,-325,10,63,38,403,-721,-188,0,65,1,333,-652,90,-18,45,-30,250,-435,384,-43,15,-69,222,-91,518,-39,-13,-85,-70,313,582,-9,-57,-65,-280,696,597,6,-86,-29,-517,920,610,34,-86,18,-616,918,84,46,-56,42,-737,639,-223,46,-28,75,-601,291,-553,29,1,74,-472,-5,-739,24,34,72,-212,-245,-839,6,53,57,33,-523,-705,-5,61,32,285,-742,-575,-21,54,-7,520,-822,-369,-25,41,-30,475,-780,-36,-46,19,-61,471,-671,112,-37,5,-60,330,-313,428,-26,-17,-53,296,127,322,-11,-28,-37,49,408,329,-4,-27,-10,21,490,247,10,-24,13,-10,508,237,14,-19,17,5,347,-18,11,-6,17,-105,167,-20,2,1,15,-24,52,-27,1,2,8,15,16,-54,2,5,4,-2,2,-95,-3,3,-2,10,-3,-8,notClockwise
83,17,143,50,-430,-539,41,42,90,348,-522,-374,12,75,37,412,-600,-129,6,55,8,296,-537,150,-4,44,-14,308,-368,249,-25,15,-66,181,-155,501,-25,-15,-68,-14,164,650,-16,-66,-55,-216,507,718,-6,-79,-36,-414,716,475,8,-89,1,-631,806,199,18,-60,32,-706,725,-101,31,-29,64,-690,422,-446,25,-3,70,-506,78,-598,15,15,68,-254,-164,-800,11,39,50,-111,-449,-690,2,49,42,231,-589,-618,-19,40,-1,417,-586,-493,-14,44,-20,341,-575,-231,-12,34,-30,389,-524,9,-25,22,-42,427,-357,74,-22,3,-50,282,-194,195,-9,-6,-41,184,22,346,-8,-19,-30,113,239,298,-4,-14,-18,32,351,158,10,-19,1,1,360,197,10,-12,11,-27,310,92,9,-5,14,-11,208,28,6,-2,15,24,121,-53,7,0,12,10,61,-16,2,2,4,-9,12,-23,notClockwise
79,5,149,55,-452,-349,48,33,84,233,-630,-250,23,49,40,291,-687,-87,1,57,9,259,-597,120,-12,40,-13,325,-456,248,-40,23,-68,230,-247,481,-42,-8,-76,64,155,610,-32,-43,-68,-162,580,642,-6,-76,-44,-293,873,447,19,-82,-5,-604,983,245,43,-65,34,-671,879,-80,41,-46,56,-617,517,-395,40,-19,75,-504,134,-677,28,13,75,-438,-225,-699,16,42,63,-233,-506,-684,-3,59,53,117,-670,-646,-13,64,19,317,-724,-431,-24,53,-13,384,-710,-170,-27,31,-33,576,-553,-51,-33,5,-55,484,-348,90,-26,-12,-61,323,-114,237,-18,-22,-50,111,163,310,-5,-18,-26,100,367,109,-4,-14,-11,-77,389,248,8,-4,12,22,342,93,10,-4,14,-18,258,100,15,0,19,42,152,43,8,-2,10,12,39,10,9,0,6,27,-10,-2,2,-3,0,12,-17,6,notClockwise
70,11,143,-427,-433,-189,45,55,90,315,-606,-280,11,73,53,370,-667,-74,-4,66,3,343,-728,257,-20,53,-31,320,-533,487,-34,20,-85,306,-125,523,-30,-24,-96,-50,375,598,-2,-71,-84,-276,785,691,19,-91,-38,-573,1147,422,45,-95,20,-763,1126,102,51,-58,70,-776,707,-333,39,-22,88,-732,214,-586,28,13,96,-500,-200,-786,16,44,83,-229,-511,-853,1,66,64,116,-734,-820,-13,71,28,406,-906,-542,-27,54,-10,611,-923,-365,-39,39,-46,622,-770,-32,-45,9,-65,517,-492,155,-44,-15,-75,409,-96,315,-31,-35,-56,153,321,420,-7,-30,-23,73,581,178,3,-25,0,-88,611,277,14,-13,21,18,459,38,18,-8,26,-115,246,115,13,2,19,-7,85,-25,8,1,11,-39,0,27,4,0,6,32,-20,-17,0,-3,0,-11,-24,12,0,0,-1,30,-7,-28,notClockwise
68,38,143,-51,-470,-145,33,56,74,252,-661,-72,8,57,35,384,-651,24,-8,47,0,314,-544,216,-19,33,-15,275,-401,310,-36,4,-65,264,-160,434,-41,-21,-65,32,255,461,-23,-47,-66,-125,591,553,1,-71,-38,-333,811,468,24,-76,-4,-539,880,181,34,-57,22,-704,762,-4,43,-45,45,-691,419,-341,43,-10,79,-701,114,-517,28,18,72,-541,-221,-682,19,49,59,-259,-506,-769,9,63,58,76,-697,-691,-2,77,29,389,-783,-542,-22,48,-13,582,-820,-207,-27,31,-45,624,-671,-92,-36,7,-58,527,-444,137,-38,-13,-66,379,-115,311,-26,-31,-59,164,232,303,-19,-25,-38,1,445,181,-4,-15,3,-8,516,187,6,-11,14,-19,492,132,12,-1,19,-2,313,37,13,-1,19,16,147,6,14,0,14,18,68,1,9,0,6,31,-3,-6,2,-3,0,5,-20,17,notClockwise
68,41,136,233,-414,-633,46,71,86,412,-636,-357,17,81,34,468,-638,-22,-4,66,-11,359,-579,335,-14,34,-31,307,-388,408,-34,-6,-71,133,-74,650,-34,-45,-75,-102,374,648,-13,-83,-55,-378,752,605,13,-91,-8,-525,1009,246,32,-80,26,-745,952,-92,39,-37,59,-731,618,-501,36,-8,68,-531,167,-731,32,24,77,-478,-216,-796,21,47,59,-261,-521,-734,10,68,47,130,-717,-602,0,70,20,418,-800,-433,-6,49,-10,435,-764,-123,-27,33,-42,576,-713,25,-35,1,-55,502,-590,269,-43,-11,-63,371,-224,338,-30,-33,-54,166,200,319,-24,-22,-32,40,459,193,-4,-26,-3,13,575,245,2,-10,14,-36,581,17,15,-8,26,-61,393,7,11,3,22,-52,168,-54,13,3,20,7,23,-9,2,5,6,1,-13,5,2,1,3,50,-17,-60,0,-2,-2,12,-24,29,notClockwise
76,-2,153,29,-44,-559,63,31,99,158,-463,-459,46,61,77,464,-633,-357,20,67,17,318,-688,-69,6,53,-10,283,-630,220,-26,31,-83,224,-443,608,-37,-10,-94,26,76,700,-32,-57,-100,-339,559,797,-12,-86,-55,-477,960,753,6,-98,-10,-718,1195,357,38,-70,46,-842,1011,-101,39,-38,63,-789,539,-537,35,5,83,-681,43,-860,33,40,88,-410,-375,-962,22,81,73,52,-726,-921,-7,87,50,546,-911,-733,-27,66,-4,642,-916,-373,-35,47,-34,769,-715,-26,-47,5,-66,640,-458,256,-39,-29,-66,488,-114,293,-28,-51,-61,42,249,509,-4,-29,-16,40,469,254,2,-32,-2,-26,521,253,11,-12,19,-54,462,-7,6,-3,14,-103,303,33,12,5,21,12,121,-26,5,0,11,5,26,-37,4,3,7,-14,-24,27,0,0,0,26,-25,-30,0,-1,-1,-6,-21,28,notClockwise
