AccX1,AccY1,AccZ1,GyrX1,GyrY1,GyrZ1,AccX2,AccY2,AccZ2,GyrX2,GyrY2,GyrZ2,AccX3,AccY3,AccZ3,GyrX3,GyrY3,GyrZ3,AccX4,AccY4,AccZ4,GyrX4,GyrY4,GyrZ4,AccX5,AccY5,AccZ5,GyrX5,GyrY5,GyrZ5,AccX6,AccY6,AccZ6,GyrX6,GyrY6,GyrZ6,AccX7,AccY7,AccZ7,GyrX7,GyrY7,GyrZ7,AccX8,AccY8,AccZ8,GyrX8,GyrY8,GyrZ8,AccX9,AccY9,AccZ9,GyrX9,GyrY9,GyrZ9,AccX10,AccY10,AccZ10,GyrX10,GyrY10,GyrZ10,AccX11,AccY11,AccZ11,GyrX11,GyrY11,GyrZ11,AccX12,AccY12,AccZ12,GyrX12,GyrY12,GyrZ12,AccX13,AccY13,AccZ13,GyrX13,GyrY13,GyrZ13,AccX14,AccY14,AccZ14,GyrX14,GyrY14,GyrZ14,AccX15,AccY15,AccZ15,GyrX15,GyrY15,GyrZ15,AccX16,AccY16,AccZ16,GyrX16,GyrY16,GyrZ16,AccX17,AccY17,AccZ17,GyrX17,GyrY17,GyrZ17,AccX18,AccY18,AccZ18,GyrX18,GyrY18,GyrZ18,AccX19,AccY19,AccZ19,GyrX19,GyrY19,GyrZ19,AccX20,AccY20,AccZ20,GyrX20,GyrY20,GyrZ20,AccX21,AccY21,AccZ21,GyrX21,GyrY21,GyrZ21,AccX22,AccY22,AccZ22,GyrX22,GyrY22,GyrZ22,AccX23,AccY23,AccZ23,GyrX23,GyrY23,GyrZ23,AccX24,AccY24,AccZ24,GyrX24,GyrY24,GyrZ24,AccX25,AccY25,AccZ25,GyrX25,GyrY25,GyrZ25,AccX26,AccY26,AccZ26,GyrX26,GyrY26,GyrZ26,AccX27,AccY27,AccZ27,GyrX27,GyrY27,GyrZ27,AccX28,AccY28,AccZ28,GyrX28,GyrY28,GyrZ28,AccX29,AccY29,AccZ29,GyrX29,GyrY29,GyrZ29,AccX30,AccY30,AccZ30,GyrX30,GyrY30,GyrZ30,Label
115,-57,95,-407,2468,707,55,-5,58,146,214,153,35,-25,33,46,-421,-100,22,-16,12,101,-629,-210,8,-4,0,-19,-655,38,-16,12,-23,178,-1270,-332,-25,5,-44,-225,-801,-202,-25,28,-37,-36,-323,-178,-29,21,-30,-194,226,130,-17,16,-14,29,568,-31,-14,4,-9,-116,788,341,-5,2,11,170,729,32,-3,-9,8,12,594,222,4,-3,13,117,284,52,2,-9,6,-15,88,106,2,-2,5,22,-7,22,2,-2,2,-7,0,25,2,0,1,0,-3,-26,1,-1,0,-4,9,10,0,0,0,12,16,-37,0,0,0,-3,8,-5,0,1,0,3,-8,-22,0,0,-1,-3,-10,24,0,0,0,4,-6,-23,0,0,0,-5,-4,13,0,0,0,5,2,13,0,0,0,3,4,4,0,0,0,1,7,9,0,0,0,0,-2,-6,0,0,0,6,0,7,left
58,-129,67,-142,-509,-368,-10,41,-20,-247,-746,-161,9,35,-20,-20,-117,78,-1,1,-17,55,76,25,-5,-2,-5,25,27,-72,-14,21,-19,46,136,-42,6,-15,3,116,323,188,-3,-20,7,26,104,-70,3,0,10,-37,-35,-11,6,2,1,-28,-11,-37,4,5,3,-14,-23,5,-1,0,1,-26,-8,24,-1,0,2,-4,-22,3,0,-1,0,-14,-8,3,1,1,1,0,-13,4,0,0,0,-12,-7,10,0,0,1,8,-8,-9,0,0,0,-13,-3,4,0,0,0,4,-15,2,0,0,0,-10,3,2,0,0,0,-2,-7,6,0,0,0,-4,-5,-11,0,0,0,2,-11,10,0,-1,0,-3,-9,-4,0,0,0,10,-12,-17,0,0,0,7,0,8,0,0,0,4,-5,3,0,0,0,-2,1,-7,0,0,0,6,8,-5,0,0,0,0,7,17,left
153,-59,-20,-28,4735,917,95,-44,48,108,1570,250,64,-15,52,229,148,106,27,-33,17,-106,-257,13,17,3,22,-52,-299,220,-17,0,22,8,-1320,-320,-27,20,1,-48,-1087,-165,-29,4,-14,-82,-640,-170,-11,27,-5,159,-410,-154,-9,-10,-24,-40,-322,-89,-2,17,-19,-47,-262,36,-7,-3,-28,-221,-110,85,-13,10,-26,-104,175,12,-20,2,-18,-73,480,114,-17,9,-8,147,623,-67,-18,-5,-5,72,647,211,-10,1,5,228,571,-39,-1,-5,9,57,385,14,6,-2,11,11,147,29,6,-2,11,-42,5,74,4,0,7,-28,-19,41,2,-1,2,1,0,0,2,-1,0,-8,-8,-9,0,0,0,-10,-17,-6,0,0,0,-13,-8,6,0,1,0,4,1,-15,0,0,0,-5,-6,-3,0,0,0,-1,-5,19,0,-1,0,0,-3,-1,0,0,0,-4,-1,1,left
144,-54,55,37,3605,827,82,-28,47,6,1187,262,67,-12,62,255,133,48,37,-23,29,-62,-251,-28,26,-3,22,15,-386,133,-8,0,4,-56,-1216,-263,-19,11,-8,-36,-1040,-238,-31,5,-33,-157,-667,-100,-24,16,-23,26,-345,-102,-24,0,-23,-79,-83,-9,-19,11,-17,-17,79,40,-13,-1,-16,-32,239,42,-7,6,-3,-23,324,40,-4,2,-4,-33,369,32,-2,10,0,61,340,74,-3,0,-2,91,337,32,-1,3,3,54,294,42,-3,-5,-3,58,270,81,-1,0,3,65,195,41,0,-6,1,6,153,18,3,-1,4,-25,94,39,3,-2,4,19,35,1,3,1,4,-25,0,21,2,0,2,-4,-18,-8,0,0,2,5,-28,3,0,0,0,9,-16,-6,0,0,-1,0,-7,-15,-1,-1,-1,1,-9,-6,0,0,0,2,2,-10,0,0,0,-6,4,8,left
133,-51,62,-224,2706,551,92,-14,69,230,618,122,55,-18,45,34,-90,35,34,-10,29,-37,-321,-90,25,-10,18,-13,-409,45,-5,9,2,8,-1086,-278,-19,4,-18,-102,-879,-115,-20,11,-25,-25,-598,-203,-18,8,-31,-54,-362,-67,-19,12,-23,-33,-149,32,-17,0,-24,-35,50,74,-19,2,-19,-126,202,62,-21,3,-17,-39,391,152,-18,6,-7,61,556,81,-14,0,-6,101,610,23,-9,0,3,75,549,145,-1,-1,8,157,463,2,8,-5,14,34,288,60,10,-5,15,24,78,-42,9,-1,12,-46,-40,40,3,0,4,2,-46,-1,1,0,0,-21,-33,-16,-1,1,-1,13,-24,-38,-1,0,-1,0,-17,10,-1,0,-1,-6,-13,-6,0,0,0,-5,-6,2,0,0,0,6,1,1,0,0,0,-3,-4,4,0,-1,0,3,2,3,0,0,0,0,1,0,left
147,-50,42,-219,3456,522,89,-25,57,-42,1057,107,59,-13,65,205,-19,7,27,-16,29,-99,-342,-32,21,-5,19,44,-416,75,-11,1,4,28,-1181,-231,-21,10,-12,62,-954,-174,-25,3,-36,-161,-506,-94,-10,14,-20,50,-260,-140,-14,0,-24,-177,-103,26,-14,13,-16,-127,4,68,-18,0,-16,-132,168,101,-13,9,-6,-7,257,79,-16,0,-12,40,376,91,-11,5,-2,137,422,117,-8,-5,-4,151,445,25,0,-2,1,97,367,28,2,-5,0,50,273,-11,4,-2,7,-26,174,42,5,-1,7,-7,112,-2,4,0,8,-13,39,14,3,1,5,-12,-7,-13,1,1,2,-9,-10,18,0,0,1,19,-11,-23,0,-1,-1,1,-13,11,0,0,-1,6,5,-8,0,0,-1,3,6,1,0,0,0,-1,0,-8,0,0,0,-10,-5,5,0,1,0,1,-1,2,left
-46,46,-149,228,3241,727,47,2,1,9,2069,352,20,0,-20,-104,1536,253,37,-12,16,-23,1012,130,47,-2,50,119,312,199,46,-44,59,-68,-898,-187,10,1,25,-20,-1350,-175,12,-9,22,90,-1560,-307,-11,10,-6,-79,-1491,-188,-37,5,-51,-140,-976,-149,-31,35,-33,-52,-357,-37,-25,-1,-34,-61,7,-79,-25,6,-22,-129,266,169,-17,1,-13,40,474,40,-12,-1,-9,10,572,62,-8,3,-2,71,577,61,-5,0,4,91,514,42,1,3,9,102,395,33,1,-2,7,65,223,31,4,-1,10,1,104,60,5,-4,8,1,38,9,4,-1,5,-9,7,24,2,-1,2,1,-28,-4,0,0,0,-1,-16,17,0,-1,0,8,-17,-23,0,0,-1,4,-18,11,0,-1,0,-7,-10,-8,0,0,0,0,0,-11,0,0,0,-6,-3,9,0,1,0,2,2,-9,left
159,-55,20,-129,3898,703,123,-14,74,167,1113,206,65,-16,46,271,-53,96,29,-22,28,-61,-287,-2,22,-10,17,-9,-400,84,-11,4,11,-33,-1271,-301,-33,6,-16,-81,-1025,-188,-29,9,-24,-209,-569,-139,-14,18,-20,10,-378,-217,-18,10,-24,-107,-145,40,-14,11,-22,-36,-2,68,-16,0,-22,-91,182,124,-14,2,-12,-1,335,89,-15,3,-11,18,485,106,-9,2,-1,139,508,65,-10,-4,1,107,487,88,-2,-1,5,107,399,4,2,-1,7,42,281,9,5,-3,8,12,136,24,4,-2,8,-27,43,0,4,-1,5,-12,15,13,2,0,2,-4,0,-11,0,0,1,1,-7,-18,0,1,0,3,-6,0,0,0,0,3,0,7,0,0,0,0,-6,-3,0,0,-1,-4,3,9,0,0,0,2,-4,-1,0,0,0,-2,-1,8,0,0,0,-3,1,8,left
142,-40,50,-91,3091,365,109,14,90,506,610,66,42,-39,27,89,-174,53,23,-7,24,-166,-198,-15,21,-1,18,15,-284,67,-9,2,11,-64,-1018,-163,-26,-2,-18,-184,-763,-37,-9,21,-5,-62,-501,-95,-6,6,-16,126,-483,-92,-14,-1,-24,-86,-349,76,-13,6,-27,39,-187,-20,-23,-3,-27,-171,144,48,-20,7,-15,29,422,-11,-19,1,-13,38,617,66,-13,3,0,94,629,-63,-11,0,5,51,574,107,3,1,11,135,352,-25,3,-4,6,-7,174,10,6,-2,10,-28,29,57,3,0,6,-10,-2,23,3,-2,2,-7,7,7,1,0,0,22,25,-31,0,0,0,-5,7,6,0,0,1,2,-13,-7,0,0,0,-17,-4,6,0,1,0,2,-10,-1,0,0,0,-1,-5,22,0,0,0,-7,0,0,0,0,0,-4,10,6,0,0,0,7,5,-7,left
144,-56,34,-299,3614,556,107,-19,70,-75,1058,160,60,-9,58,140,12,54,28,-15,30,-48,-278,-27,22,-7,19,17,-374,65,-6,3,9,35,-1187,-256,-26,7,-18,10,-968,-160,-23,5,-30,-124,-585,-120,-13,12,-25,-8,-335,-110,-14,9,-21,-55,-131,-36,-17,5,-24,-64,25,71,-15,2,-18,-53,186,87,-15,-2,-16,24,291,37,-12,2,-6,-13,388,64,-11,0,-6,38,412,60,-6,6,2,79,415,88,-3,0,4,90,358,-4,2,2,9,28,300,104,4,-3,6,79,187,-10,5,-3,8,-3,106,50,5,-4,5,23,30,8,5,-1,4,-23,12,1,2,0,2,-11,-14,-12,1,0,2,-19,-23,-12,0,1,0,12,-13,2,-1,0,0,-18,-8,8,-1,0,0,7,-13,-9,0,0,0,-2,-1,13,0,0,-1,0,5,-7,0,0,0,-13,0,10,left
149,-82,35,-316,3123,786,108,-15,65,-27,718,327,52,-11,47,84,-60,129,28,-13,31,-19,-211,-48,18,-5,19,32,-265,66,-11,6,13,45,-1018,-260,-25,4,-11,37,-816,-193,-17,6,-17,-55,-553,-239,-11,7,-21,-6,-439,-173,-7,7,-15,-7,-306,-42,-12,11,-23,160,-121,-60,-13,-4,-20,-182,41,74,-11,6,-15,-173,127,71,-14,3,-13,-123,209,188,-20,11,-12,-79,372,-36,-15,0,-7,-72,496,230,-11,8,-1,182,539,127,-9,-8,0,174,504,52,-1,0,11,137,427,30,7,-14,8,38,216,-14,7,0,10,-64,36,34,4,-2,7,-25,-43,21,4,1,4,16,-35,-25,2,0,-1,-5,-32,-13,0,0,0,23,-21,-29,0,-1,-1,-7,-12,13,0,0,-1,9,-14,-17,0,0,-1,-18,-12,-3,0,0,0,20,3,-6,0,0,0,0,0,11,left
149,-65,17,-111,3820,730,91,-24,43,-59,1401,242,84,-5,71,269,176,91,37,-19,31,-37,-250,26,25,-8,25,-12,-357,112,-7,-2,12,-12,-1196,-298,-16,6,-1,-39,-1066,-248,-32,-2,-33,-234,-669,-128,-13,19,-23,-102,-393,-159,-8,9,-28,-85,-265,-21,-11,14,-23,-172,-188,208,-17,2,-27,11,-7,61,-18,4,-17,17,287,75,-19,0,-18,161,484,-19,-17,2,-6,115,607,205,-12,1,0,219,625,-135,-3,1,10,55,522,41,2,0,6,61,286,-2,6,-3,15,-37,120,102,4,-4,10,-22,20,49,5,-2,6,-18,10,24,3,-2,1,-12,4,-13,1,0,0,-1,-10,-21,0,-1,0,7,0,18,0,0,0,3,6,-23,-1,0,0,3,-16,-3,0,0,0,6,-12,9,0,0,0,-10,1,0,0,0,0,-9,-8,-5,0,0,0,-14,-7,7,left
150,-52,10,-21,4208,763,131,-17,85,102,1181,315,72,-8,69,182,-95,167,28,-20,39,-1,-377,-15,21,-8,21,47,-423,43,-8,-2,14,6,-1331,-340,-36,9,-23,-59,-1012,-227,-31,6,-40,-137,-483,-265,-9,17,-29,-82,-225,-178,-11,10,-26,-99,-74,-8,-14,13,-22,-138,5,149,-14,-3,-19,-64,103,107,-15,0,-6,-93,224,204,-18,3,-10,98,323,28,-14,2,0,55,406,137,-12,4,-1,163,448,-23,-4,1,5,98,424,106,0,0,4,140,325,-50,5,-4,7,0,211,49,5,-2,6,10,96,22,6,-4,6,-17,42,45,4,-1,3,-7,15,-11,3,-1,2,-11,-11,-2,1,0,1,-9,-11,-11,0,0,0,-7,-9,17,0,1,0,-3,-12,-26,0,0,0,8,-4,24,0,0,0,0,-3,-12,-1,-1,0,8,9,13,0,0,-1,-1,-5,-11,left
148,-53,4,-228,4114,775,123,-15,77,18,1196,293,65,-1,64,199,4,171,24,-18,37,18,-286,21,19,-12,23,46,-331,80,-11,-1,15,46,-1232,-348,-34,3,-17,-30,-969,-223,-27,1,-31,-151,-518,-217,-11,15,-27,-69,-276,-236,-13,12,-20,-146,-140,-32,-10,15,-17,7,-43,59,-10,0,-14,-65,90,139,-9,0,-6,-142,155,115,-7,2,-3,-6,176,165,-9,1,-9,23,213,41,-12,-1,-7,-34,282,72,-11,4,-7,87,320,116,-8,0,-8,201,351,-40,-5,-4,-4,76,348,43,0,-1,4,82,273,5,3,-2,6,47,192,26,6,-1,8,-13,93,-4,4,0,8,-20,16,14,3,1,6,-10,-10,-3,1,0,2,3,-13,-16,0,0,0,-14,-17,17,0,0,0,25,-10,-12,-1,-1,-2,-8,-3,4,0,0,-1,3,0,-3,0,0,0,-2,6,13,left
149,-49,2,-248,4338,769,134,-11,80,5,1303,334,78,0,69,180,34,215,34,-21,41,38,-280,36,21,-16,22,-17,-343,72,-7,-4,18,48,-1267,-361,-32,0,-13,-40,-1003,-256,-30,3,-33,-121,-548,-320,-12,17,-29,-129,-326,-207,-7,17,-24,-75,-225,-44,-15,10,-22,-118,-153,124,-15,1,-24,-115,-28,96,-18,0,-16,-147,101,204,-21,4,-13,27,310,95,-18,4,-7,72,457,84,-11,6,-4,116,510,25,-9,5,2,168,491,59,1,-1,6,163,415,-7,6,-3,9,92,234,67,5,-5,9,14,115,57,5,-2,8,25,51,11,5,-3,5,-16,28,11,2,0,3,3,12,-19,1,-2,1,-30,7,28,0,0,2,9,-9,-39,0,-1,1,-29,-14,13,0,1,0,0,-12,-23,0,-1,0,-22,-3,36,0,0,0,18,-1,-26,0,0,-2,-13,2,17,left
137,-53,60,-160,3115,871,103,-13,98,197,554,407,48,-21,50,65,-134,188,23,-21,35,-54,-255,-24,14,-8,23,-2,-253,50,-11,-2,10,37,-940,-321,-27,1,-20,-125,-621,-259,-15,11,-17,-78,-404,-298,-6,15,-20,-45,-342,-166,-2,5,-22,-119,-345,14,-6,9,-21,-221,-338,173,-11,3,-26,-86,-211,107,-14,4,-17,36,14,63,-17,3,-21,16,291,45,-16,8,-15,118,466,118,-18,4,-13,255,604,4,-8,0,0,139,603,-53,-3,-2,0,23,489,91,3,-1,11,83,273,94,3,-4,12,5,146,20,6,-1,12,-40,67,60,5,0,8,3,28,2,4,-1,4,5,0,-11,0,-2,0,-17,-9,-4,0,0,1,8,-3,-16,0,0,0,0,-15,-3,0,0,0,9,-17,-9,0,0,0,-19,-15,6,0,0,1,18,-4,-7,1,0,-1,-6,-9,22,left
144,-56,40,-374,3900,969,123,-18,85,-2,1061,375,54,-11,63,149,-42,169,27,-17,42,36,-300,5,19,-12,25,16,-344,151,-10,0,19,118,-1193,-358,-33,0,-16,7,-932,-302,-16,7,-23,-137,-551,-277,-11,8,-30,-95,-377,-183,-9,9,-21,-165,-263,-87,-12,8,-31,-160,-164,-13,-12,9,-31,-170,-31,151,-17,5,-25,-44,215,62,-14,9,-19,25,460,175,-16,5,-13,160,567,63,-12,3,-3,135,572,136,-7,-1,11,174,550,89,0,-5,11,91,372,59,4,-1,17,52,166,48,6,-2,11,-4,52,37,6,-1,9,-4,15,-1,3,-1,3,-6,-6,-4,2,-1,0,3,-6,-1,1,-2,-1,-1,-5,-5,1,0,0,-2,-11,-20,-1,0,-1,-13,-13,2,0,0,0,4,0,5,0,0,0,0,-5,3,0,0,0,-6,-3,-15,0,0,0,0,6,20,left
137,-75,44,-125,4096,708,121,-10,106,165,1163,191,87,-19,73,349,-277,10,24,-12,31,-212,-446,19,23,-7,23,47,-492,116,-8,5,9,-103,-1378,-203,-35,7,-30,-84,-1066,-240,-45,9,-36,-263,-421,29,-15,8,-21,164,-196,-264,-20,4,-25,-230,3,76,-14,9,-24,-89,74,58,-17,-1,-25,-55,230,118,-12,1,-19,17,378,-49,-10,2,-15,0,472,99,-9,4,-6,195,457,146,-12,0,-1,227,478,-32,0,-3,11,85,377,0,0,1,8,35,211,29,3,0,11,22,80,25,2,-1,7,-20,36,9,5,-1,6,-5,5,-10,0,0,1,-3,-2,8,1,-1,1,2,-5,-14,0,0,-1,-22,-4,-3,2,0,0,-1,-10,-7,1,1,0,0,-10,5,1,1,0,-3,-9,18,0,0,0,3,-13,0,0,0,0,10,-10,8,0,0,-1,11,4,-6,left
159,-44,35,-184,3881,772,136,-7,116,269,900,289,76,-13,76,161,-182,115,27,-20,36,-157,-371,-26,19,-6,25,14,-420,44,-11,-2,10,-22,-1287,-316,-36,6,-33,-182,-963,-201,-32,11,-40,-151,-511,-143,-12,14,-29,52,-301,-179,-11,10,-25,-141,-120,30,-18,11,-24,-15,32,133,-15,-1,-16,-74,218,104,-18,1,-14,12,383,56,-15,4,-8,29,478,138,-11,-1,-5,128,479,10,-4,1,4,71,465,99,-3,-1,1,136,374,-2,5,-4,8,48,241,49,5,-1,8,44,123,-6,4,-1,6,-4,60,-2,4,0,4,18,7,19,2,0,2,16,3,-13,0,0,1,-3,-8,-9,0,0,0,-6,-14,7,0,0,0,7,-9,6,-1,0,0,-20,-5,-5,0,0,0,-2,-11,-4,0,0,0,-2,-2,16,0,0,0,5,-1,-6,0,0,0,-6,1,14,left
152,-80,42,-70,3761,852,128,-29,118,375,743,245,59,-36,55,16,-216,87,23,-15,39,-130,-384,-87,19,-11,23,-19,-432,64,-9,2,13,-79,-1279,-398,-34,13,-35,-257,-907,-191,-21,25,-27,-85,-495,-207,-6,15,-30,13,-311,-116,-11,11,-25,-85,-156,73,-21,13,-28,-24,47,148,-19,-1,-19,26,253,109,-20,-1,-18,30,423,78,-17,-1,-9,71,531,127,-14,1,-5,113,574,14,-2,0,4,127,495,70,1,0,7,82,378,7,5,-1,14,41,219,72,6,-1,11,20,98,23,6,-2,9,-9,25,18,3,0,5,0,-1,0,1,-1,0,3,-15,-21,1,-1,0,3,-4,-4,-1,0,-1,-6,-4,-2,0,0,0,0,-5,-6,0,0,0,-12,-8,-9,0,1,0,5,-2,24,0,0,0,-2,-5,-1,0,0,0,2,4,-2,0,0,0,-9,-3,5,left
-43,-19,-153,272,-1616,15,-42,0,-84,151,-445,-51,-38,-4,-66,107,-5,-61,-26,-3,-39,-39,218,2,-18,2,-32,11,342,4,1,5,10,-87,792,6,15,4,18,-62,734,-28,25,0,29,-86,522,100,43,6,41,48,310,-83,34,1,40,75,45,16,19,-4,26,64,-235,-34,13,-5,27,-1,-455,8,3,2,17,28,-473,14,-18,-3,-4,-27,-476,-64,-15,-1,-4,-62,-376,63,-12,2,-3,-34,-240,40,-12,2,-9,31,-101,3,-7,-1,-6,-1,-58,-17,-4,1,-3,31,-20,3,-1,-1,-2,-20,-13,37,0,1,-1,16,0,-6,-1,0,-1,-30,-8,-8,0,2,1,8,4,18,0,-1,0,-18,4,21,1,0,0,10,6,-29,1,0,0,-7,6,-1,1,0,0,13,-1,-11,0,0,0,-3,7,2,-1,0,-1,8,5,-21,0,0,0,-2,4,-4,right
125,-8,92,-60,-1447,136,60,0,32,-102,-1219,100,38,0,3,43,-1074,52,13,-2,-23,-65,-847,51,-1,0,-24,-56,-552,70,-36,1,-52,86,-67,-1,-41,-3,-55,62,334,-49,-45,-5,-46,14,685,-56,-31,-4,-15,36,880,8,-9,-1,-2,12,899,-138,7,0,15,-135,785,-5,24,3,37,-50,580,-93,27,9,34,-60,423,-30,34,5,34,-21,157,-31,29,4,33,104,-11,-8,12,1,16,118,-198,-12,2,0,10,27,-299,27,7,-4,18,28,-404,144,-9,0,2,33,-331,0,-15,-4,-5,-52,-327,17,-8,0,2,-61,-232,71,-8,0,-7,-3,-136,-8,-11,1,-9,-6,-62,-3,-4,2,-5,0,-33,-47,-2,2,-2,-11,-14,23,0,-1,-1,-1,0,10,0,0,0,2,2,12,0,0,0,-8,0,-10,0,0,1,0,0,0,1,0,0,3,1,3,right
100,13,121,-27,-681,166,72,10,64,58,-959,127,45,8,23,-32,-1051,177,28,5,-4,-9,-966,209,7,0,-23,102,-702,123,-24,-9,-63,164,-353,-42,-49,-13,-72,17,119,-22,-63,-16,-67,41,595,22,-52,-14,-36,-42,968,-140,-28,-8,-12,-218,1094,-231,-8,3,17,-305,991,-49,21,12,37,-161,794,-119,37,17,46,-55,590,-82,35,9,39,2,213,-95,38,12,47,125,-87,-16,19,4,29,146,-315,54,5,-2,18,135,-432,-60,0,-4,10,39,-510,121,-4,0,4,78,-385,57,-20,-5,-11,-7,-301,34,-10,-2,-7,7,-197,28,-10,-1,-8,-19,-109,32,-4,-2,-3,-1,-50,16,-4,1,-4,-36,-36,22,0,0,0,-3,-3,-3,0,1,0,-10,8,26,1,0,-1,0,3,-3,0,0,1,-7,0,15,0,-1,-1,-1,19,4,0,0,0,-2,1,-8,right
-11,-2,-168,818,-2067,-63,-32,-14,-108,303,-411,-24,-44,-15,-71,-6,4,15,-28,-10,-40,-5,185,-21,-14,-4,-29,-84,305,-50,-2,0,14,-237,851,-49,11,6,27,-183,663,7,35,10,38,-48,519,-73,28,6,22,-52,345,-65,27,4,33,117,81,-42,19,1,27,104,-180,18,12,0,21,66,-343,45,2,-2,10,58,-428,12,0,3,10,57,-439,33,-6,-1,-1,-24,-362,71,-11,-1,-6,-31,-254,43,-7,-1,-5,-2,-160,1,-9,1,-6,-7,-105,4,-5,-1,-2,0,-65,19,-3,1,-3,-3,-33,10,-1,0,-1,1,-20,-13,-1,0,-1,2,-7,38,1,0,-1,5,3,-10,0,0,-1,-7,5,0,-1,0,0,-3,3,-1,0,0,0,1,10,-5,0,0,0,-5,7,10,-1,0,0,-2,1,3,1,0,1,1,-3,-18,0,-1,0,-6,-5,29,right
122,7,121,-82,-902,217,73,22,55,79,-1138,196,49,4,23,117,-1146,99,24,0,-8,4,-981,105,-2,2,-26,-33,-654,112,-37,-8,-62,29,-208,74,-49,-16,-68,-78,310,-71,-54,-15,-58,-1,725,-66,-42,-11,-32,-34,997,-58,-13,-8,-1,-43,1057,-200,7,5,19,-124,903,-108,18,6,33,-41,729,-219,29,14,37,-56,481,-119,29,17,37,102,185,-76,22,7,30,116,-127,50,15,3,25,141,-316,56,8,0,16,94,-470,86,2,-3,12,8,-453,109,-2,-6,2,-64,-365,105,-3,1,-2,-33,-263,56,-9,-2,-7,-13,-192,22,-6,1,-3,-7,-103,-18,-7,0,-7,-13,-66,-9,-4,1,-2,-19,-35,24,-4,0,0,3,-11,14,-2,0,0,-16,-8,32,-1,0,0,10,-2,-2,-1,0,0,-3,-1,16,0,-1,1,21,9,8,0,-1,0,2,2,0,right
-18,-20,-166,336,-1751,164,-38,-15,-107,183,-403,2,-41,-19,-67,17,2,-2,-33,-12,-40,-60,194,-21,-15,-5,-27,-82,324,0,-4,4,15,-173,788,-138,14,10,34,-116,626,-78,26,15,35,-23,392,-23,35,15,32,67,258,-83,20,3,27,90,-13,42,19,0,26,129,-244,18,7,-3,15,55,-385,127,3,-4,11,0,-364,-4,-4,-3,3,-16,-410,59,-5,2,-1,-27,-324,35,-15,0,-10,-30,-195,14,-10,0,-8,-3,-74,-7,-7,0,-8,3,-24,14,-5,-1,-5,-14,6,43,-1,0,0,13,32,2,1,0,1,-2,15,2,1,0,1,-8,6,26,1,0,1,7,8,-12,0,0,1,5,1,0,0,0,0,-5,-16,-24,0,0,0,0,-1,19,0,0,-1,-7,-3,5,-1,0,1,-4,-10,-23,-1,0,0,0,-5,20,0,0,1,7,-8,0,right
122,20,104,13,-984,108,66,12,45,-34,-1113,183,43,11,10,45,-1079,182,16,0,-16,83,-878,132,-10,-1,-30,25,-500,52,-38,-10,-55,13,-70,59,-51,-14,-57,79,371,8,-53,-21,-44,18,735,-86,-32,-15,-16,-114,953,-147,-4,-8,8,-114,888,-184,8,1,19,-125,725,-174,23,12,27,-118,539,-183,35,17,36,-64,350,-91,29,19,26,60,176,-132,26,9,26,132,-57,22,20,5,19,139,-175,39,13,-3,17,46,-264,95,3,-2,8,23,-318,93,0,-3,10,-29,-368,104,-4,0,1,-43,-306,94,-9,0,0,-26,-266,37,-6,0,-3,11,-198,44,-7,-1,-5,4,-114,38,-6,-1,-6,24,-62,-13,-3,-1,-4,-1,-28,0,-2,-1,-3,-1,-13,-2,-1,-1,0,-10,3,-14,0,0,0,-13,-3,7,0,2,1,-9,13,-1,-1,1,0,-4,9,0,right
-46,-15,-153,416,-1392,-203,-63,-8,-94,-37,-397,-26,-40,0,-61,-27,60,-1,-16,-2,-36,-11,291,-2,-12,-2,-28,-65,392,-66,2,2,11,-161,788,48,30,8,30,32,725,-12,29,0,29,48,505,-36,30,0,34,38,194,6,29,2,38,97,-66,-19,20,0,30,110,-301,-36,7,-6,17,-18,-462,24,3,-1,16,-48,-496,52,-11,2,0,-32,-400,9,-14,-1,-6,-33,-313,-9,-13,0,-9,-30,-202,41,-12,0,-7,8,-98,11,-8,0,-8,19,-43,-19,-4,-1,-2,10,-31,1,-2,0,-2,3,-12,-4,0,0,0,-2,-11,-9,0,1,0,1,-5,13,0,1,1,0,12,-6,0,0,-1,-8,15,-3,0,0,1,0,4,8,1,0,1,-3,5,-4,0,0,0,-7,2,-4,0,0,0,-3,-18,0,0,0,0,2,-12,7,-1,0,-1,2,-1,-13,right
-5,-23,-160,968,-1651,161,-45,-19,-109,378,-420,-3,-54,-22,-67,19,-16,-18,-30,-11,-40,-69,236,-36,-15,-4,-30,-100,365,5,-7,2,14,-294,800,-139,17,10,29,-223,690,-89,40,15,39,5,488,-86,29,11,26,37,220,-71,35,6,38,150,-18,-2,23,5,22,152,-235,67,15,-5,22,72,-400,92,3,-3,8,-36,-426,104,2,-2,8,10,-392,81,-15,-2,-7,-55,-340,71,-13,-1,-6,-60,-236,50,-13,2,-10,7,-117,-5,-10,1,-9,25,-50,-14,-5,0,-3,4,-12,0,-2,1,-2,1,-3,18,0,-1,0,3,9,5,0,-1,2,-8,-2,-4,1,0,1,-7,-1,-19,0,0,0,-4,-8,0,-1,0,0,2,-8,-15,0,0,0,0,-9,-9,0,0,0,-2,-4,-10,0,0,-1,-2,-4,5,0,0,0,-5,1,-7,0,0,0,-3,2,8,right
117,15,101,-208,-1345,280,75,12,51,31,-1172,165,50,2,18,130,-1122,79,21,0,-14,-24,-945,111,0,2,-35,-65,-632,146,-41,-11,-71,14,-95,34,-58,-18,-72,37,413,-97,-56,-18,-57,-92,868,-23,-36,-11,-25,-46,1122,-108,-9,-7,12,-45,1131,-212,20,14,39,26,914,-193,33,18,47,36,569,-104,40,21,52,84,203,-68,31,14,43,107,-53,37,21,4,30,148,-287,38,5,-7,14,7,-400,94,0,-5,10,-65,-431,135,-11,-6,-1,-58,-346,61,-10,-4,-4,-34,-289,10,-10,-1,-5,-37,-203,-1,-7,0,-3,-2,-153,27,-5,1,-6,-29,-89,-1,-2,2,-4,-5,-54,4,-3,0,-2,-14,-29,14,-3,0,-3,-4,-16,26,-1,0,0,-10,6,5,0,-1,0,9,18,-6,0,0,0,-18,5,-8,0,2,0,0,15,7,1,0,1,10,14,-19,right
118,27,98,-202,-2186,429,56,16,35,64,-1483,277,25,7,-9,175,-1142,145,5,-1,-30,93,-768,87,-7,-2,-35,124,-408,62,-45,-14,-61,98,249,-45,-53,-14,-58,-63,614,-115,-39,-11,-30,-153,910,-51,-18,-3,-2,-183,1008,-143,-2,5,13,-228,967,-81,30,13,40,-49,747,-21,35,17,38,85,574,-80,37,5,41,82,248,30,31,6,37,168,-64,-22,26,-3,36,118,-352,89,6,-7,11,-19,-464,27,5,-11,16,-68,-547,79,-6,0,1,-42,-462,36,-13,-2,-5,-66,-328,19,-14,0,-9,-30,-215,9,-11,2,-6,14,-111,-29,-12,1,-8,12,-63,8,-6,0,-4,1,-25,11,-3,0,-4,-1,-9,10,0,0,0,7,0,7,-2,0,0,-10,10,-15,2,0,1,-1,5,0,0,0,0,6,13,2,0,0,1,4,5,-6,0,0,-1,0,2,-10,right
-63,-13,-145,316,-2005,30,-50,-10,-89,102,-522,-58,-34,-5,-59,6,-57,0,-30,-7,-42,-7,179,-3,-19,-5,-27,-51,284,19,1,0,8,-119,791,-99,15,7,22,-72,659,-8,17,4,24,-44,465,-35,32,10,33,20,298,-41,27,7,26,63,82,-24,23,3,25,75,-127,-4,15,0,16,43,-269,69,14,0,15,46,-324,18,0,-4,3,-5,-370,70,-3,-2,3,-8,-314,16,-10,0,-4,-7,-230,13,-10,-1,-3,-5,-166,23,-10,0,-6,-2,-104,3,-8,0,-3,-5,-68,0,-4,0,-3,10,-43,4,-2,0,-1,2,-26,6,0,0,-1,5,-10,-8,0,0,0,4,3,0,0,0,0,0,0,8,-1,0,0,-10,-4,0,0,0,-1,-14,5,-1,0,0,0,-8,11,6,0,-1,1,-7,9,28,0,0,1,-8,1,-28,0,0,0,-8,-2,-5,right
120,22,96,-63,-1735,280,64,6,47,-9,-1366,183,40,2,7,155,-1139,58,14,-1,-20,82,-843,17,0,2,-25,105,-466,10,-34,-7,-56,290,88,-159,-55,-5,-63,71,469,-175,-55,0,-43,-171,824,-2,-26,3,-14,-153,1001,117,-6,-1,4,-256,923,-115,12,8,26,-342,790,140,34,3,38,-117,553,157,51,3,49,75,249,12,27,2,35,78,0,39,14,-2,24,142,-226,-129,7,-3,17,103,-352,11,-1,0,5,83,-362,10,-15,-6,-6,14,-329,-11,-11,-5,-3,26,-276,-4,-8,-1,-3,22,-194,-13,-9,-2,-7,-29,-159,-7,-4,0,0,-36,-111,-1,-4,2,-3,-4,-51,-25,-2,2,-2,-12,-56,-5,0,2,0,-9,-48,19,-1,0,0,7,-21,22,0,0,0,12,-7,7,-1,0,-1,4,-19,0,0,0,0,6,11,24,0,0,0,6,20,-6,right
-4,15,-155,612,-2223,-47,-31,-11,-104,300,-718,-63,-43,-15,-81,18,-159,10,-23,-10,-47,-16,133,-2,-11,-8,-27,-66,251,-13,-4,-4,8,-196,789,-89,19,4,37,-130,681,-8,21,15,30,-88,548,-60,28,9,34,-2,366,-31,15,16,16,85,256,-34,16,2,23,139,67,16,9,8,13,138,-49,69,16,-6,21,131,-178,95,7,-7,14,17,-312,48,11,-10,20,-21,-390,70,-1,-1,4,-79,-371,-20,-9,-9,-3,-148,-356,13,-8,1,0,-91,-299,25,-12,7,-7,-1,-187,-66,-13,2,-9,-7,-143,-15,-6,1,-4,14,-63,7,-4,0,-5,18,-4,34,0,0,-3,37,12,-23,-2,-1,-3,-2,20,8,0,-1,0,7,16,12,0,-1,0,-1,13,6,0,0,1,-8,14,13,0,0,0,-1,8,-14,0,0,0,5,7,0,0,0,1,1,6,-1,right
-57,6,-148,-17,-1254,-98,-38,-2,-88,86,-292,-69,-31,-3,-61,47,114,-30,-21,-2,-41,-3,293,-6,-8,1,-21,-10,378,4,3,5,8,7,745,22,21,4,27,39,663,55,27,6,28,32,519,52,30,-4,32,31,245,94,23,-1,25,34,49,32,24,-10,33,-31,-194,20,7,-3,18,-64,-381,-31,1,-5,17,-63,-518,18,-5,5,7,-52,-449,-74,-12,0,1,-29,-419,-42,-15,2,-9,15,-301,-60,-14,0,-7,-19,-181,-17,-11,1,-7,0,-79,-4,-8,1,-5,18,-38,-4,-2,0,-3,-1,-25,-22,-2,1,-2,7,-20,27,0,-1,0,6,3,-11,0,0,-1,-3,-1,0,0,0,0,0,3,-6,0,0,0,2,8,3,0,0,0,-4,3,5,-1,0,0,1,4,-1,0,0,0,3,3,-10,1,0,0,3,-2,9,0,0,0,-2,7,-9,right
-18,9,-158,-79,-2180,-25,-27,0,-88,169,-596,-89,-28,-2,-65,99,-139,-32,-26,-3,-44,-5,53,-19,-17,-2,-27,5,184,-2,-7,0,2,6,783,-84,8,2,16,-38,687,13,20,6,25,-15,603,18,29,7,26,36,502,29,29,1,24,22,269,42,33,2,36,70,79,58,16,-1,18,21,-102,42,12,-9,22,3,-306,42,4,-6,16,-17,-418,38,-1,-1,11,-25,-387,-34,-16,-3,-2,-76,-390,-34,-9,0,3,-59,-347,-26,-14,4,-7,-43,-218,-22,-11,2,-6,-14,-137,-15,-9,2,-9,3,-80,-22,-5,0,-4,17,-50,8,-2,0,-3,6,-15,0,0,0,-1,0,-1,3,0,0,0,3,-1,9,0,0,0,-8,1,2,0,0,0,0,6,2,0,0,0,9,5,-2,0,0,0,-2,5,0,0,0,0,-1,5,0,0,0,0,12,8,-4,right
-53,2,-148,667,-1309,-296,-41,-1,-98,187,-221,-115,-34,-5,-58,-69,159,-15,-24,0,-31,-58,279,-6,-9,5,-16,-27,347,-82,3,5,13,-132,705,41,23,1,39,-9,536,90,23,7,29,48,306,59,24,0,26,50,142,25,20,-4,20,13,-50,61,18,-3,22,3,-199,13,0,-1,2,-53,-269,42,5,-7,11,-11,-283,-26,0,0,1,-20,-282,-20,-7,-1,0,5,-243,-33,-10,-1,-3,-8,-208,-45,-6,1,-1,-28,-161,-39,-9,4,-5,0,-111,-5,-5,1,-1,16,-75,-7,-4,1,-4,0,-55,-5,-1,0,-2,0,-33,13,-1,-1,-1,11,-15,-4,1,0,0,-5,-8,13,0,0,0,-8,0,-16,0,0,0,7,4,2,0,0,0,-5,-5,-14,0,0,0,2,-1,-3,-1,0,0,0,-2,-4,0,0,0,2,-8,15,-1,0,0,-1,-4,-9,right
-25,5,-159,438,-1179,-246,-42,-3,-95,180,-143,-70,-45,-5,-58,-6,151,-19,-20,1,-39,-37,336,-3,-7,2,-24,0,433,-78,4,2,15,-66,726,59,19,3,29,-52,535,65,38,3,38,55,340,49,26,-1,34,65,94,-2,21,-2,30,-4,-124,1,12,-3,22,-22,-297,37,8,-1,15,-31,-333,-11,-4,1,0,-50,-337,-24,-3,-1,1,-33,-301,-30,-11,0,-3,2,-281,0,-10,0,-4,-11,-182,-1,-9,0,-5,5,-140,-9,-6,-1,-3,4,-80,-3,-5,1,-4,-1,-53,-8,0,0,-2,1,-21,7,-1,0,-1,12,0,3,-1,0,-1,4,5,-31,0,0,0,-7,-6,24,0,0,0,-7,1,-33,0,0,0,-4,5,15,0,0,0,-4,-5,-10,0,0,0,-5,-3,26,0,0,0,1,-9,-18,0,0,0,5,-7,19,0,0,0,0,-6,1,right
-31,-9,-158,-409,-1891,17,-40,-8,-117,-140,-499,36,-35,-10,-75,222,42,-100,-30,-9,-45,45,234,-39,-17,-1,-28,-22,333,-50,-2,3,11,117,789,35,17,6,34,118,655,-143,28,6,42,-54,395,95,28,9,27,-2,265,25,24,0,22,46,71,6,22,-6,26,19,-109,49,11,-4,21,-27,-233,41,2,-1,11,-85,-293,22,5,-1,17,-51,-389,-48,-2,3,8,-50,-366,31,-12,4,-3,-43,-292,-16,-11,0,-8,-31,-229,0,-9,1,-7,10,-130,-26,-8,0,-8,28,-64,34,-4,-2,-3,32,-56,-33,-1,-1,-3,-13,-26,29,0,0,-1,-1,-3,-9,0,0,0,-3,-5,5,-1,0,0,-14,-7,-8,0,0,1,-2,8,2,0,0,0,4,9,10,0,0,0,-4,12,-20,0,0,0,2,9,4,0,0,-1,4,4,-5,0,0,0,1,13,-4,right
-63,12,-151,-658,-2276,207,-35,-2,-86,-183,-585,57,-38,-5,-71,129,-61,-13,-31,-8,-45,53,146,5,-20,-4,-30,-11,247,41,1,-4,8,114,814,-63,8,5,15,72,699,-112,23,1,30,-33,505,6,36,11,37,54,356,-47,29,6,27,50,176,-4,23,0,27,62,-66,19,16,-4,28,17,-259,86,9,2,18,-30,-346,34,-3,-6,5,-96,-417,41,-5,-2,5,-51,-402,37,-11,0,-4,-48,-285,8,-11,0,-9,-20,-204,-16,-8,0,-6,-6,-123,-20,-8,0,-6,-8,-64,-12,-4,0,-2,8,-35,-10,-2,0,-2,4,-19,11,0,1,0,4,-3,4,0,0,0,-5,-3,-1,0,0,0,11,7,-8,0,0,1,1,4,3,0,0,0,-6,3,-4,0,0,0,-3,1,8,-1,0,0,-7,2,-30,0,0,0,-2,2,9,0,0,0,-2,6,11,right
