AccX1,AccY1,AccZ1,GyrX1,GyrY1,GyrZ1,AccX2,AccY2,AccZ2,GyrX2,GyrY2,GyrZ2,AccX3,AccY3,AccZ3,GyrX3,GyrY3,GyrZ3,AccX4,AccY4,AccZ4,GyrX4,GyrY4,GyrZ4,AccX5,AccY5,AccZ5,GyrX5,GyrY5,GyrZ5,AccX6,AccY6,AccZ6,GyrX6,GyrY6,GyrZ6,AccX7,AccY7,AccZ7,GyrX7,GyrY7,GyrZ7,AccX8,AccY8,AccZ8,GyrX8,GyrY8,GyrZ8,AccX9,AccY9,AccZ9,GyrX9,GyrY9,GyrZ9,AccX10,AccY10,AccZ10,GyrX10,GyrY10,GyrZ10,AccX11,AccY11,AccZ11,GyrX11,GyrY11,GyrZ11,AccX12,AccY12,AccZ12,GyrX12,GyrY12,GyrZ12,AccX13,AccY13,AccZ13,GyrX13,GyrY13,GyrZ13,AccX14,AccY14,AccZ14,GyrX14,GyrY14,GyrZ14,AccX15,AccY15,AccZ15,GyrX15,GyrY15,GyrZ15,AccX16,AccY16,AccZ16,GyrX16,GyrY16,GyrZ16,AccX17,AccY17,AccZ17,GyrX17,GyrY17,GyrZ17,AccX18,AccY18,AccZ18,GyrX18,GyrY18,GyrZ18,AccX19,AccY19,AccZ19,GyrX19,GyrY19,GyrZ19,AccX20,AccY20,AccZ20,GyrX20,GyrY20,GyrZ20,AccX21,AccY21,AccZ21,GyrX21,GyrY21,GyrZ21,AccX22,AccY22,AccZ22,GyrX22,GyrY22,GyrZ22,AccX23,AccY23,AccZ23,GyrX23,GyrY23,GyrZ23,AccX24,AccY24,AccZ24,GyrX24,GyrY24,GyrZ24,AccX25,AccY25,AccZ25,GyrX25,GyrY25,GyrZ25,AccX26,AccY26,AccZ26,GyrX26,GyrY26,GyrZ26,AccX27,AccY27,AccZ27,GyrX27,GyrY27,GyrZ27,AccX28,AccY28,AccZ28,GyrX28,GyrY28,GyrZ28,AccX29,AccY29,AccZ29,GyrX29,GyrY29,GyrZ29,AccX30,AccY30,AccZ30,GyrX30,GyrY30,GyrZ30,AccX31,AccY31,AccZ31,GyrX31,GyrY31,GyrZ31,AccX32,AccY32,AccZ32,GyrX32,GyrY32,GyrZ32,AccX33,AccY33,AccZ33,GyrX33,GyrY33,GyrZ33,AccX34,AccY34,AccZ34,GyrX34,GyrY34,GyrZ34,AccX35,AccY35,AccZ35,GyrX35,GyrY35,GyrZ35,AccX36,AccY36,AccZ36,GyrX36,GyrY36,GyrZ36,AccX37,AccY37,AccZ37,GyrX37,GyrY37,GyrZ37,AccX38,AccY38,AccZ38,GyrX38,GyrY38,GyrZ38,AccX39,AccY39,AccZ39,GyrX39,GyrY39,GyrZ39,AccX40,AccY40,AccZ40,GyrX40,GyrY40,GyrZ40,Label
0.5305230015742523,0.5395187286039131,1.0,0.0,0.4477367751317942,0.863427428779183,0.6081861115969914,0.6141332866888228,0.9500237387241061,0.41296387669774326,0.5316955358765939,0.6066429480354222,0.6157158682958928,0.6444355597757732,0.9468252580024489,0.3871244189368167,0.5963850728438985,0.5947749759783936,0.6160073964866688,0.6624103550813364,0.9506734301206927,0.44524372192068973,0.6023060742202716,0.5947230373698289,0.6109248107149103,0.6716759539218871,0.9557410230140684,0.44212740540680917,0.5719479575142182,0.6361960163087231,0.6266973187735825,0.704540343336915,0.9464854194257728,0.48352247643285634,0.5575869322460851,0.6542187134806658,0.6044079062445338,0.7070791374097304,0.9602588770334091,0.4975978393538837,0.5133871763575454,0.691926143298621,0.6031884854694021,0.7041005522376871,0.9627576900972038,0.5145557950502506,0.5293582984911834,0.7400472641337938,0.6045478397761064,0.6964241985057098,0.9551413078787576,0.5521853169553588,0.5788557924533202,0.7536811488820214,0.6092655988405508,0.6942452335140809,0.9457657612633998,0.560573402238554,0.5638974731866934,0.7639909626821098,0.6117244308953247,0.6944651290636947,0.9401084484869686,0.6036564780429532,0.5112317241021113,0.749733814631106,0.6305155051350608,0.6952847397486194,0.9313326170069217,0.5987482795335913,0.5079595917625367,0.7524865608850339,0.6394312701466803,0.6969039706139584,0.9213773457607636,0.6309242475394085,0.6031890305658711,0.7319708105019866,0.6392313651015767,0.7028811314625553,0.9170394062820161,0.6438050224634482,0.5825434336614123,0.7241800192172851,0.6413903395886954,0.7032809415527624,0.914580574227242,0.616147713402758,0.5072064819383488,0.7574726673072428,0.6498863040055973,0.7009020715160299,0.9052250181163947,0.623133456254707,0.5267353987586673,0.7543044121847976,0.6502461330867838,0.6992428596416702,0.8928508958244834,0.5977354766665801,0.5084530085439011,0.7711325213597527,0.6482270921312377,0.6967040655688548,0.8881331367600389,0.5766224322850391,0.4777832601864596,0.7760407198691147,0.6625402933606537,0.6890277118368775,0.885114570578975,0.5597683538058016,0.4214039005895032,0.7879865998389903,0.691686448936755,0.6822709213123767,0.8749593942877133,0.5471213026203028,0.41491157451891864,0.7981146285091022,0.7211324620805117,0.672455583597791,0.8754391663959619,0.5740514711610876,0.5531461812138053,0.7493702443711533,0.7381243909143157,0.6629201129463506,0.8808366026137584,0.5871659698236684,0.538161892642896,0.720258654270652,0.7661310877333266,0.6549239111422075,0.8822559284339938,0.5754278442880515,0.5030254239488924,0.69691224972083,0.7895999400284864,0.6539643669257102,0.8798170868837303,0.588672189472044,0.6012673020489782,0.6441426234191187,0.7918788575426673,0.652105250006247,0.882435842974587,0.5715843872542654,0.581530630794401,0.6240164126003065,0.7817436717559159,0.6521452310152678,0.8841550263624778,0.5711948476900304,0.5720518347313476,0.5968005817124159,0.783143007071641,0.6514855443664259,0.8850346085609335,0.5567039759004856,0.5526787337367232,0.5961773184096398,0.7807041655213773,0.6484669781853619,0.8889927284539844,0.5516139922611474,0.6032149998701535,0.5820500168800478,0.76687073640021,0.6421299882555787,0.8942502311402084,0.5628846703196821,0.5979951697094035,0.5737658088139819,0.762852644993628,0.6359929033708988,0.8999675154301707,0.5681304697847145,0.5736099929882879,0.5732723920326175,0.7636122841650216,0.6380519253354656,0.8984482370873835,0.5761809541122394,0.5432518762822344,0.5507310359155478,0.7618131387590894,0.639471251155701,0.8966690821859618,0.5629885475368115,0.5559248967720155,0.5353572077804035,0.7520977535670557,0.6420900072465578,0.893610534995877,0.54275845950087,0.48154880930739863,0.5235931129405044,0.7554361678202853,0.649866313501087,0.8875334216247281,0.5533279663437817,0.5108941231464409,0.520035318253824,0.7487793298183363,0.6578225342962093,0.8810764886678828,0.5322928298750876,0.5146856415716623,0.532474615005064,0.7438416752042779,0.6595417176841001,0.8812763937129864,0.525333056327421,0.5627807931025528,0.47741968992650685,0.7409030710412554,0.6631200179914541,0.8806766785776757,0.538006076817202,0.6123821642818189,0.5048692445529385,0.7381044004098054,0.6680576726055124,0.880536745046103,0.5368114888202145,0.5988521567507207,0.49165086867322827,0.7316874484619806,0.6691971313626027,0.8854144281466304,0.5504453735684421,0.5793751785389669,0.5144259485288389,0.7303680751642969,0.6699567705339964,0.8904720257877509,0.5528605188666995,0.5646505830108811,0.5021164982990106,0.0,left
0.7717084384917164,0.6393712986331492,0.9676153826932207,0.5203784237430381,0.4668650339513237,0.3697108415350576,0.755416177315775,0.6327744321447313,0.9477248307054149,0.5417563134203097,0.4782024872205692,0.34898908979934384,0.7390572811247991,0.6282432511223836,0.919571536853328,0.5550621805142291,0.4723430228122377,0.33762111848630505,0.7367750318598666,0.6259276843499337,0.8868037682101002,0.5350118257419699,0.47919432364385445,0.3301441977569238,0.7295884454883931,0.6231190184662285,0.8516704565331468,0.4964522774090181,0.5023727779049363,0.3220263981078813,0.7066793273195232,0.6190409555461156,0.782583272945351,0.4429694056610971,0.4997634851606012,0.32103456168459604,0.6909268097653615,0.6079062445338465,0.7141757665109073,0.3487449454489967,0.49576562142366676,0.30852216372930497,0.6764736750043729,0.5922536795022365,0.6494665034108799,0.26762798504615853,0.49408712901503016,0.2832227054245823,0.6539243859166896,0.5772807916239786,0.5967115620080462,0.1527275501640345,0.49051651789120315,0.2926222629129473,0.624378420250381,0.548394512606512,0.5488942752192708,0.025009536888685437,0.48380254825665675,0.31906614785992216,0.5865763762212949,0.5009570454034333,0.513351158199855,0.0,0.4898603799496452,0.3902189669642176,0.5329818336290263,0.41797646118093906,0.5042154976386217,0.0,0.46720073243305105,0.47054245822842755,0.47255053849421524,0.2934556085859217,0.512791424073565,0.0,0.4785534447241932,0.4845502403295949,0.424233489092681,0.13127264549339068,0.5677853019815587,0.0,0.4391241321431296,0.546517128252079,0.4238736600114945,-0.014777980459281878,0.6656788025687798,0.0,0.4857251850156405,0.5860227359426261,0.4597965966166071,-0.14497613633524073,0.7772657987455959,0.0,0.6014496070801861,0.5597619592584115,0.5105924685774258,-0.21652215197781055,0.8821159949024214,0.0196078431372549,0.5585259784847791,0.5513237201495385,0.5913740973037808,-0.2312351632974337,0.9799495239761113,0.15873960479133287,0.6423895628290227,0.523399710078584,0.6445888203103526,-0.19647167595392184,1.0508958244833704,0.31064316777294576,0.6262607766842145,0.511833371480888,0.6692371123716235,-0.14891426572378125,1.089837327269547,0.4557106889448386,0.5721065079728389,0.5099717708094911,0.665239011469552,-0.10233639021464808,1.1161048501961568,0.6084382391088731,0.5174486915388724,0.5046768902113374,0.6571228666383468,-0.068512456583123,1.1183237961968064,0.7314259555962462,0.4666056305790799,0.5103532463569085,0.6300557235313227,-0.050640945550863306,1.1056698068417503,0.8312962539101244,0.46768902113374533,0.5188525215533685,0.6174816961943077,-0.04700267372997826,1.0730453034808465,0.9087663080796521,0.46216525520714125,0.510078583962768,0.6018291311626977,-0.06437442214947901,1.0277868012693971,0.9604791332875563,0.43056382085908296,0.5021438925764858,0.5953122266923211,-0.07536919963017569,0.9746920212898872,1.0,0.46552224002441445,0.48976882581826503,0.5839176391214173,-0.08408505959669157,0.9203978110397562,1.0,0.49953459983215076,0.49864957656214237,0.5676653589544967,-0.07464954146780282,0.8667233064294461,1.0,0.4741283283741512,0.5025406271458,0.5619680651690447,-0.0446837752067768,0.8063719733126765,1.0,0.4699015793087663,0.5205462729839018,0.5500737149853819,0.016527149603938165,0.7512581523776206,0.9670405127031357,0.4342717631799802,0.5228046082246128,0.5483345410929809,0.1056448187111122,0.6984232489567456,0.9109483482108797,0.46590371557183186,0.5278248264286259,0.5593493090781878,0.21743171993303181,0.6572628001699193,0.8160372320134279,0.43353933012893875,0.5353322652018006,0.5821784652290163,0.33801444313950874,0.629236112846398,0.7088273441672389,0.43387502861066607,0.5267566948958572,0.6003698243334417,0.45371948324545847,0.6195407181588746,0.6194399938963913,0.46504921034561686,0.5221332112611582,0.6307953721982058,0.5471950823358904,0.6235388190609461,0.558480201419089,0.4893873502708476,0.5257190814068818,0.6389914790474525,0.6094655038856543,0.6518453734476124,0.5146868085755703,0.5257343404287785,0.5242999923704891,0.6390514505609836,0.6437292286164072,0.699622679227367,0.49787136644541086,0.5012893873502708,0.514198519874876,0.6429495989405033,0.6587221069991754,0.7573952372623004,0.49053177691309985,0.47843137254901963,0.5183489738307775,0.6457682600764637,0.6639796096853994,0.813168744846198,0.47516594186312655,0.49498741130693524,0.516868848706798,0.6374722007046653,0.6646792773432619,0.8692621005022614,0.47663080796520946,0.5091630426489662,0.5016098268101015,0.0,left
0.5724203449283836,0.044285296696872256,0.7159456299327682,0.0,0.6221866178377966,0.48084229800869766,0.5596316866413329,0.022142648348436128,0.7045454545454546,0.0,0.5274128328374151,0.46465247577630275,0.5657215239208808,0.014761765565624087,0.695459417324369,0.0,0.48464179446097505,0.47428091859311816,0.5728953522361883,0.011071324174218064,0.698881905875475,0.0,0.46596475165941864,0.46976424811169604,0.5785442852966969,0.008857059339374439,0.7076439637532885,0.0,0.4072938124666209,0.5032120241092546,0.5959660917860274,0.0,0.7188102893890675,0.0,0.4084382391088731,0.5142290379186694,0.6281058170125694,0.006299327681964325,0.7427652733118971,0.12895399404898147,0.6081025406271457,0.5508659494926376,0.6521046477638117,0.029757380882782798,0.7916837182110493,0.2566109712367437,0.6420843823910888,0.5654535744258793,0.6758550131540485,0.06970184156679335,0.8366997953814673,0.3680170901045243,0.7734340428778516,0.529076066224155,0.6728003507746273,0.11243788365974863,0.888161356328559,0.4647745479514763,0.7395437552452888,0.5004501411459525,0.6505700087693657,0.15119847997661504,0.9281642794504531,0.5611200122072175,0.5147631036850537,0.4894026092927443,0.6310727857351652,0.1763080970476469,0.942268342589886,0.6866712443732357,0.4292362859540703,0.4920576791027695,0.6200380005846244,0.18224203449283838,0.9215726395790704,0.7949340047302967,0.4930495155260548,0.5280994888227665,0.5959514761765565,0.16911721718795672,0.8882490499853843,0.8724345769436179,0.47092393377584496,0.5538414587624934,0.6028061970184156,0.14561531715872555,0.8316574101140017,0.9310444800488289,0.4555123216601816,0.5531090257114519,0.6113563285589009,0.12003800058462441,0.7770242619117217,0.9472953383688105,0.4048065918974594,0.5390707255664912,0.6143671441099093,0.10130078924291142,0.7351505407775504,0.9548485542076753,0.40946059357595177,0.5212481879911498,0.6098947676118094,0.08672902660040925,0.7068401052323882,0.9520866712443732,0.4255436026550698,0.5214618142977036,0.6096024554223911,0.07901198479976614,0.6901344636071324,0.9606317235065233,0.420859082932784,0.5402304112306401,0.607380882782812,0.08971061093247591,0.6850920783396667,0.949431601434348,0.4298771648737316,0.5150682841229877,0.6140163694826075,0.11796258403975445,0.685048231511254,0.9564049744411384,0.4001220721751736,0.5262226291294728,0.6172756503946214,0.15828705057000877,0.6907044723764981,0.9426718547341115,0.45146868085755704,0.5322652018005646,0.6191610640163695,0.21296404560070153,0.6984361297866121,0.9089799343862058,0.48128480964370185,0.5363851377126726,0.627652733118971,0.2785296696872259,0.7060800935399006,0.8741130693522545,0.4658121614404517,0.539330128938735,0.6323151125401929,0.34792458345513005,0.7119847997661501,0.8233463035019455,0.4408789196612497,0.5359273670557717,0.637269804150833,0.4158871674948845,0.7178164279450453,0.7701838712138552,0.45023270008392463,0.5372396429388876,0.6371236480561239,0.4831482022800351,0.7224349605378544,0.7195086594949264,0.44882887006942856,0.5294422827496758,0.6425752703887753,0.5422975738088278,0.723531131248173,0.6606393530174716,0.4342565041580835,0.5264057373922332,0.6493276819643379,0.5904267757965507,0.7286319789535224,0.5983215075913634,0.4603494316014343,0.5284962233920806,0.6567962584039755,0.6247149956153172,0.7382782812043263,0.5563591973754483,0.47881284809643704,0.530586709391928,0.661166325635779,0.6479830458930137,0.7513300204618533,0.5298084992751965,0.48082703898680096,0.5294117647058824,0.6686641332943584,0.6598509207833967,0.7721864951768489,0.5070420386053254,0.48050659952697033,0.5231708247501335,0.6744372990353698,0.6657410114001754,0.7980707395498392,0.4916762035553521,0.49503318837262533,0.518074311436637,0.6795966091786028,0.665799473838059,0.8217480268927214,0.47998779278248266,0.5102159151598382,0.5131456473640039,0.6826951183864367,0.6650248465361006,0.8460245542239111,0.47867551689936677,0.49448386358434426,0.503746089875639,0.6865682548962292,0.6636802104647763,0.8676264250219234,0.4756847486076142,0.4934309910734722,0.49964141298542764,0.6873136509792459,0.662364805612394,0.8817158725518854,0.4806591897459373,0.5044632639047837,0.49570458533608,0.6849166910260157,0.6566647179187372,0.8920052616194096,0.4860608834973678,0.5008010986495766,0.49456015869382774,0.6801812335574394,0.6532592809120141,0.8995323004969308,0.49579613946746015,0.49457541771572444,0.4935835812924392,0.6779596609178603,0.6511984799766151,0.9008477053493131,0.4984512092774853,0.49626916914625774,0.49625391012436104,0.0,left
0.5904576856649395,0.06339953943580887,0.6347150259067358,0.0,0.36874952315556575,0.5407492179751278,0.6040227403569373,0.03169976971790443,0.6436024755325274,0.0,0.396429388876173,0.5478904402227818,0.6028833237382459,0.021133179811936312,0.6665467280752255,0.0,0.4192263675898375,0.544808117799649,0.6109851755900979,0.015849884858952216,0.6833261370178468,0.0,0.40830090791180285,0.5443503471427481,0.6288716177317213,0.01267990788716176,0.7095567069660333,0.0,0.5330434119172961,0.5654840924696727,0.6564047207829591,0.0019142199194012927,0.7611830742659758,0.12178225375753414,0.6556801709010452,0.6006103608758678,0.6677461139896373,0.01374496257915947,0.8170840529648821,0.2498512245365072,0.6839703974975204,0.5853055619134814,0.6856073690270582,0.04124928036845134,0.8745970063327576,0.36908522163729307,0.6444037537193866,0.5612726024261845,0.6961859527921704,0.0749568221070812,0.9262809441565919,0.48935683222705423,0.5959716182192721,0.5400167849240863,0.6848301669545193,0.10988773747841106,0.953468624064479,0.609552147707332,0.48413824673838407,0.5222400244144351,0.6771301093839953,0.14175302245250432,0.9526770293609672,0.7186541542687114,0.4843976501106279,0.5072251468680857,0.669789867587795,0.15928324697754748,0.9310161197466896,0.7945067521171892,0.4674143587396048,0.5113756008239871,0.6609527921704088,0.15856361542890038,0.8835060449050087,0.8491950865949492,0.4630960555428397,0.5055313954375524,0.6509355210132411,0.14703511801957397,0.8321387449625791,0.8927595941100176,0.48163576714732587,0.5025101091020066,0.6474381116868163,0.13313183649971214,0.7830166954519285,0.9279316395819028,0.46929121843289845,0.4956893263141833,0.6368019573978123,0.12009211283822684,0.7434225676453656,0.9430685893034256,0.490272373540856,0.4931715877012284,0.6295336787564767,0.11601899827288427,0.7175158318940703,0.9505912870984969,0.4920119020370794,0.4930495155260548,0.618811168681635,0.12082613701784686,0.7044473229706391,0.9376974135957885,0.4707103074692912,0.4922102693217365,0.6089666090961429,0.1409326424870466,0.6965745538284399,0.9407797360189212,0.46588845654993516,0.5070420386053254,0.6028353483016695,0.17147380541162927,0.6989637305699481,0.9172503242542153,0.4293583581292439,0.505500877393759,0.5999424294761082,0.21545768566493956,0.704951065054692,0.9009689478904402,0.4666208896009766,0.5087052719920653,0.6016983304548071,0.26727115716753025,0.7135578583765112,0.8682536049439231,0.4773479819943542,0.5219043259327077,0.6047927461139897,0.3256332757628094,0.7244530800230282,0.8274509803921568,0.45307087815671016,0.5221179522392615,0.6120610247553253,0.38364997121473804,0.7339810017271157,0.7899290455481803,0.4470893415732052,0.5267109178301671,0.6204375359815775,0.44350892343120324,0.7419545192861255,0.7417563134203098,0.4624704356450752,0.5267719539177539,0.6235751295336788,0.4957109959700633,0.7484599884858952,0.6987106126497291,0.4649729152361334,0.5239490348668651,0.6321243523316062,0.541321243523316,0.7488198042602188,0.657755397878996,0.48262760357061113,0.5177233539330129,0.6409326424870466,0.5783534830166954,0.7490644789867588,0.6129854276340887,0.49541466392004274,0.519981689173724,0.6454663212435233,0.6055699481865285,0.7513241220495106,0.5807888914320593,0.505653467612726,0.5154955367360952,0.64926597582038,0.623762233736327,0.7521876799078872,0.5492027161058977,0.497764553292134,0.5233081559472038,0.651237766263673,0.6375935521013241,0.7599309153713298,0.5198596169985504,0.4903791866941329,0.5211413748378729,0.6555987334484744,0.6439694876223374,0.7774755325273459,0.5005416952773327,0.49184405279621574,0.5195239185168231,0.6587075417386298,0.6488341968911918,0.7946171560161197,0.47707331960021365,0.4935683222705425,0.518974593728542,0.6621617731721359,0.6502878526194588,0.8176309729418537,0.47350270847638665,0.4981765468833448,0.5074998092622263,0.6650546919976972,0.64951065054692,0.8422135866436384,0.4736705577172503,0.4923323414969101,0.5021133745326924,0.6686528497409326,0.6482728842832469,0.8612838226827864,0.47263294422827495,0.496757457846952,0.500175478751812,0.6663212435233161,0.647279792746114,0.8756332757628094,0.47469291218432896,0.48918898298619057,0.4976424811169604,0.665572826712723,0.6431347150259067,0.8864421416234888,0.4806134126802472,0.4762951094834821,0.49619287403677426,0.6639896373056994,0.6417242371905584,0.8894502014968335,0.4881971465629053,0.4939345387960632,0.49251544975967043,0.6620466321243523,0.641335636154289,0.8907455382843983,0.49216449225604636,0.49660486762798506,0.49129472800793467,0.0,left
0.5992052426101506,0.0833100948131623,0.673452314556609,0.0,0.5118944075684748,0.491981383993286,0.5961726157278304,0.06549776910206358,0.6833170663692136,0.0,0.5148851758602273,0.485801480125124,0.593627997769102,0.044501766127532975,0.6905791039226622,0.0,0.5667505912870985,0.47713435568780044,0.5963469046291132,0.03337632459564975,0.7175996932515337,0.0,0.5726253147173266,0.48551155870908674,0.600697155605131,0.026701059676519798,0.7470719464584495,0.05050736247806516,0.5530785076676585,0.5075761043717097,0.611740100390407,0.01767986614612384,0.8023703290574457,0.1875791561760891,0.6051575494010834,0.5261158159761959,0.6203011712214166,0.02805354155047404,0.8637339654210819,0.34607461661707484,0.6364690623331044,0.5523613336385138,0.6209704406023425,0.054392080312325695,0.9210540992749582,0.4946517128252079,0.5672388799877928,0.553307392996109,0.6263803680981594,0.08357501394311212,0.9536252091466815,0.6069275959411001,0.47832455939574275,0.5423666742961776,0.6292805354155047,0.11314835471277189,0.9563859453430006,0.7122606240939956,0.4660410467689021,0.5373617151140612,0.6207055214723927,0.13286391522587843,0.9275515895147797,0.7917753871976806,0.4475165941863127,0.53505760280766,0.6157278304517568,0.13759063022866708,0.877649191299498,0.8464637216754406,0.42915999084458684,0.5382009613183795,0.6212911321807026,0.13410485220301174,0.8229643056330174,0.8819562066071565,0.43950560769054703,0.5381094071869993,0.6180702732849972,0.12948968209704403,0.7693669827105409,0.9123979552910658,0.45065995269703213,0.5313801785305562,0.613622420524261,0.12915504740658118,0.7280535415504741,0.9132066834515907,0.4681315327687495,0.5224689097428855,0.6093837144450641,0.1336586726157278,0.7023145566090352,0.8948653391317617,0.45348287174792096,0.5007858396276799,0.6092582264361406,0.14276352481873955,0.6876603457891801,0.9022964827954528,0.45815213244831005,0.5012436102845808,0.6059955382041271,0.1624511991076408,0.6818739542665923,0.9038223849851225,0.46016632333867397,0.5011978332188907,0.6004322364751813,0.18922197434467372,0.6851366424986057,0.9131151293202106,0.49091325246051726,0.5197528038452736,0.5947852760736196,0.2187674288901283,0.6917456776352482,0.90424963759823,0.4457618066681926,0.5278248264286259,0.5960122699386503,0.2598717233686559,0.6998047964305633,0.8985885404745556,0.4816052491035325,0.5379415579461356,0.5911740100390407,0.3129810373675404,0.7108477412158394,0.864240482185092,0.4657053482871748,0.5495841916533151,0.5913413273842723,0.3698549916341327,0.7147239263803681,0.818646524757763,0.4353704127565423,0.541237506675822,0.5967791411042945,0.43124651422197435,0.713218070273285,0.7541618982223239,0.4550545510032807,0.5422293430991073,0.602244841048522,0.48894311210262126,0.7133993307306191,0.6980849927519646,0.4340581368734264,0.532143129625391,0.609718349135527,0.5397796988287786,0.7084495259341885,0.6395208667124437,0.4482948043030442,0.5273975738155184,0.6180423870607921,0.5821528165086447,0.7036391522587842,0.5730525673304341,0.4828564888990616,0.5249103532463569,0.6221556051310653,0.6092303402119352,0.7099414389291689,0.5316853589684901,0.46837567711909667,0.5207598992904555,0.6286670384829894,0.6207752370329057,0.7205660903513664,0.5073929961089494,0.4772869459067674,0.5215075913633936,0.6355270496374791,0.629489682097044,0.7373396542108198,0.4856641489280537,0.490272373540856,0.5241626611734188,0.6377997769102064,0.6288343558282209,0.7637200223089793,0.4801403830014496,0.47231250476844433,0.5217822537575342,0.6467512548800892,0.625808700501952,0.7884272169548243,0.47792782482642865,0.49965667200732433,0.509071488517586,0.6529001673173452,0.6225878416062465,0.8103318460680423,0.4703135728999771,0.5112230106050202,0.49912260624093996,0.652649191299498,0.6213887339654212,0.8312465142219743,0.46837567711909667,0.48975356679636833,0.4972915236133364,0.6522308979364194,0.6181957612939207,0.8465839375348577,0.47058823529411764,0.4864271000228885,0.498115510795758,0.6531511433351924,0.6170663692136086,0.8537088678192973,0.4810101472495613,0.49088273441672386,0.49277485313191427,0.6465839375348578,0.6121026213050753,0.8599832682654769,0.48503852903028916,0.49054703593499654,0.49216449225604636,0.6434746235359732,0.611266034578918,0.862116564417178,0.48764782177462423,0.48715953307392995,0.4950637064164187,0.6417177914110429,0.6106943669827105,0.8611544896820971,0.4891126878767071,0.482734416723888,0.4980544747081712,0.6420663692136084,0.6112102621305076,0.859021193530396,0.49367513542381936,0.4861219195849546,0.49626916914625774,0.0,left
0.6198410485220301,0.029001673173452314,0.6489821528165086,0.0,0.5067521171892881,0.5010910200656138,0.6290435025097602,0.014500836586726157,0.6625069715560513,0.0,0.42319371328297856,0.4682230869001297,0.6351087562744004,0.009667224391150793,0.6777282022680796,0.0,0.4894789044022278,0.47510490577553977,0.6292003625209147,0.007250418293363078,0.7075257947573899,0.03172350652323186,0.5384908827344167,0.5339742122529946,0.6315393195761293,0.013399330730619061,0.7342303402119352,0.14848554207675288,0.5132982375829709,0.5597314412146182,0.6408254322364751,0.03238984941438932,0.7864612381483547,0.2536964980544747,0.629755092698558,0.585473411154345,0.6423870607919687,0.06147518126045735,0.8369213608477412,0.3636530098420691,0.6325627527275501,0.5784695201037614,0.6379531511433352,0.09343279419966535,0.8812046848856665,0.44150453955901425,0.5712367437247272,0.5479514763103686,0.6460819854991634,0.1280674846625767,0.9067345231455661,0.5315480277714199,0.4984817273212787,0.5229571984435798,0.6497629670942555,0.15320691578360293,0.9151143335192414,0.6269779507133593,0.48624399176012817,0.5137407492179751,0.6465560513106526,0.15825432236475181,0.8968349135527051,0.7137865262836652,0.4753185320820935,0.513542381933318,0.6477969882877859,0.15538204127161184,0.8640128276631344,0.7870756084534981,0.49239337758449686,0.518623636224918,0.6503625209146681,0.14912158393753486,0.8245119910764082,0.8419775692378119,0.5072861829556725,0.5222400244144351,0.6437255995538205,0.13993307306190741,0.780005577244841,0.8737315938048371,0.47550164034485387,0.5114976729991607,0.6392080312325711,0.13495538204127164,0.7387897378694925,0.8910200656137942,0.48215457389181354,0.5055313954375524,0.629419966536531,0.13378416062465143,0.7108756274400446,0.9164873731593804,0.4965285725185016,0.5195391775387198,0.615978806469604,0.13923591745677635,0.693558282208589,0.9217212176699473,0.42952620737010755,0.5195391775387198,0.6057724484104853,0.15015337423312886,0.6816229782487452,0.9306935225452049,0.41249713893339435,0.5154497596704051,0.6036670384829894,0.17236475181260455,0.6770356943669826,0.9264362554360266,0.4230869001297017,0.5175249866483559,0.5959146681539319,0.20336029001673173,0.6805911879531511,0.9134813458457313,0.45722133211261157,0.5172808422980087,0.5967094255437814,0.24436698271054097,0.6825153374233128,0.8903944457160295,0.46936751354238193,0.5273517967498283,0.6022169548243168,0.29696040156162856,0.6891801450083659,0.8486915388723583,0.5025101091020066,0.5361257343404288,0.6055772448410485,0.35287228109314,0.699191299498048,0.8149538414587625,0.4878919661249714,0.5296253910124361,0.6099832682654769,0.4105688789737869,0.7049498047964305,0.7681544213015946,0.4984969863431754,0.5233234149691005,0.6143056330172895,0.46345510317902955,0.709425543781372,0.7059891660944534,0.5024643320363165,0.5256427862973984,0.6163970998326826,0.5091606246514222,0.7173173452314557,0.6591134508278019,0.48088807507438774,0.5222858014801252,0.6202035694366983,0.5454684885666481,0.7198410485220301,0.6102693217364767,0.4790722514686809,0.5182116426337072,0.6247908533184606,0.5768683770217513,0.7235080870050196,0.5603570611123827,0.48847180895704584,0.5151903562981612,0.6252230897936419,0.5923731176798661,0.7346207473508086,0.535210193026627,0.4877393759060044,0.5112993057145037,0.6261712214166202,0.604489682097044,0.7463608477412158,0.5098496986343175,0.4794079499504082,0.5141680018310826,0.6308282208588958,0.6111266034578918,0.7606525376464026,0.4952620737010758,0.4708018616006714,0.5146715495536736,0.632919687674289,0.6138873396542108,0.7798661461238148,0.48715953307392995,0.49228656443122,0.5100175478751812,0.6357640825432236,0.6126464026770775,0.8002230897936419,0.4736552986953536,0.49175249866483556,0.5071488517586022,0.6379113218070274,0.6119771332961518,0.8190044617958728,0.47827878233005267,0.48876173037308307,0.5028152895399405,0.6414389291689905,0.6091466815393196,0.8360150585610708,0.4768596932936599,0.4997024490730144,0.4990005340657664,0.640462911321807,0.6065393195761294,0.8496514221974344,0.47913328755626766,0.49362935835812927,0.4985427634088655,0.6384411600669269,0.6035136642498605,0.8585750139431121,0.4857862211032273,0.49179827573052565,0.49712367437247273,0.6370886781929727,0.6011154489682097,0.8629531511433353,0.4873426413366903,0.4860914015411612,0.49668116273746854,0.6359174567763525,0.6016034578918015,0.8639709983268264,0.4915693904020752,0.4873426413366903,0.4943312733653773,0.6339654210819855,0.6002788622420524,0.8645147796988288,0.49489585717555507,0.5029678797589074,0.49533836881055926,0.0,left
0.5324177356385945,0.1452175125488009,0.6431957612939208,0.0,0.3565270466163119,0.4827954528114748,0.5289668153931958,0.09728806469604015,0.6286600669269381,0.0,0.33887235828183415,0.5184100099183643,0.5553541550474066,0.06485870979736008,0.643916155419223,0.0,0.37291523613336386,0.5616693369954986,0.5528269659788064,0.048644032348020075,0.6728074456218628,0.0,0.4159456778820478,0.58457312886244,0.57643614054657,0.03891522587841605,0.7001254880089236,0.07531853208209353,0.38742656595712216,0.5905394064240482,0.6143614054657,0.018321249302844407,0.7452593418851088,0.14735637445639735,0.6258182650492103,0.6147249561303121,0.647420524261015,0.022211377579475763,0.8111266034578918,0.26453040360112917,0.7022049286640726,0.6073701075761043,0.6540992749581707,0.05054378137200223,0.8690602342442832,0.379842832074464,0.5738765545128557,0.5535973144121462,0.6888733965421082,0.08162297824874513,0.9124930284439486,0.48633554589150835,0.5554283970397498,0.5223620965896086,0.6877440044617958,0.11705242610150586,0.9376324595649749,0.5965972381170367,0.550087739375906,0.49991607537956817,0.6706776352481875,0.13938929168990516,0.9368237590630228,0.6900434882124056,0.4959945067521172,0.4784924086366064,0.6590072504182933,0.15560513106525375,0.908282208588957,0.7638818951705195,0.4811322194247349,0.47090867475394826,0.6539459007250419,0.15545175683212495,0.8656302286670385,0.8215457389181353,0.510780498970016,0.4802471961547265,0.6252509760178472,0.14963747908533181,0.8138594534300055,0.8631723506523232,0.47833981841763945,0.4702220187685969,0.6116982710540994,0.14078360290016728,0.7642916899051868,0.8886243991760128,0.4798657206073091,0.4744792858777752,0.6013385387618516,0.13901282766313441,0.7253625209146681,0.9071793698023957,0.4897993438620584,0.4882581826504921,0.5906023424428333,0.141090351366425,0.6995398773006135,0.9101853971160448,0.5064316777294575,0.503944457160296,0.5831148912437256,0.1528304517568321,0.6850669269380926,0.9101396200503548,0.4963912413214313,0.49657434958419167,0.5851226993865031,0.17311767986614612,0.6756413831567205,0.9075913633936065,0.48715953307392995,0.5031052109559777,0.5823480200780815,0.20543781372002232,0.6739403234802008,0.8872663462272068,0.46668192568856337,0.5086747539482719,0.5830591187953151,0.24219185722253206,0.6758226436140546,0.8662088960097658,0.46965743495841916,0.5239795529106585,0.585750139431121,0.2907836029001673,0.6771054099274958,0.8238498512245365,0.4644998855573358,0.5319142442969406,0.5879670942554378,0.3452732849972114,0.6802565532626883,0.7733424887464714,0.46541542687113757,0.5425497825589379,0.5905465699944227,0.4028025655326269,0.6858895705521472,0.7174944686045625,0.4380254825665675,0.5399862668802929,0.6007529280535416,0.4547406581148913,0.6903095370886781,0.6639963378347448,0.4418249790188449,0.5294422827496758,0.6089235917456776,0.5063441160066927,0.6993167875069716,0.6033569848172732,0.46251621271076526,0.5220721751735714,0.6190741773563859,0.5424567763524819,0.7121583937534858,0.5564354924849317,0.4736705577172503,0.5127489127946898,0.6283045175683212,0.5651979921918572,0.7252370329057445,0.5268329900053407,0.5016556038757916,0.5048599984740978,0.6321667596207473,0.5768823201338539,0.7457334076965978,0.49953459983215076,0.47911802853437097,0.508918898298619,0.6338678192972672,0.5788343558282208,0.7692693809258226,0.49362935835812927,0.47879758907454034,0.5081254291599908,0.6347880646960401,0.5745677635248188,0.7909648633575014,0.48749523155565727,0.48377203021286336,0.5120927748531319,0.6333100948131624,0.5706636921360848,0.8128694924707194,0.4874341954680705,0.48715953307392995,0.509575036240177,0.6349135527049637,0.5679308421639709,0.8329196876742889,0.4848249027237354,0.48665598535133897,0.5068436713206683,0.6412297824874511,0.5662994980479643,0.8449107640825432,0.487357900358587,0.4972457465476463,0.49864957656214237,0.6401422197434468,0.5667317345231455,0.8537228109313998,0.49044022278171967,0.5010605020218204,0.49216449225604636,0.640281650864473,0.5661600669269381,0.858728388176241,0.49253070878156713,0.49712367437247273,0.49173723964293886,0.6390546569994423,0.5652537646402677,0.8601226993865031,0.49399557488365,0.49333943694209204,0.4940108339055467,0.6354712771890687,0.5624790853318461,0.8596486335750139,0.4954757000076295,0.4907148851758602,0.4968184939345388,0.6306190741773564,0.5624930284439487,0.8591327384272169,0.4955672541390097,0.48677805752651254,0.49840543221179523,0.629489682097044,0.5627579475738985,0.8576965978806469,0.4994430457007706,0.48639658197909513,0.49613183794918747,0.0,left
0.6490518683770218,0.096207473508087,0.9866146123814835,0.2967879758907454,0.5481345845731289,0.5423361562523842,0.6620538204127161,0.12517428890128277,0.987834634690463,0.43344777599755857,0.5737239642938887,0.5366903181506065,0.654419966536531,0.13634039784346536,0.9881251161926009,0.5497672999160754,0.5344472419317922,0.5156786449988556,0.654611684327942,0.14272518126045733,0.9757041271611824,0.6544136720836194,0.49100480659189744,0.5167315175097277,0.6525655326268823,0.14751812604573342,0.9538204127161183,0.7400778210116732,0.47701228351262687,0.5106889448386358,0.6491494701617401,0.1592163970998327,0.9226017847183491,0.8061951628900588,0.4785381857022965,0.5018234531166552,0.6397239263803681,0.1583658672615728,0.8837005019520356,0.8465552758068208,0.4790722514686809,0.49959563591973755,0.6332682654768544,0.157069157836029,0.8391801450083659,0.8811932555123216,0.47644769970244905,0.5000991836423285,0.6226017847183491,0.1528304517568321,0.8020775237032906,0.9008621347371634,0.45343709468223087,0.4939345387960632,0.6141940881204685,0.15370886781929727,0.7764221974344674,0.9120622568093385,0.45688563363088425,0.4902113374532692,0.6066508644729504,0.15846346904629113,0.7540574456218628,0.9159380483710994,0.4404364080262455,0.49144731822690163,0.5994004461795872,0.17034300055772447,0.7372420524261015,0.919523918516823,0.448706797894255,0.4839856565194171,0.5971137757947574,0.19028165086447293,0.7244980479643057,0.9126726176852064,0.45984588387884334,0.4848096437018387,0.5941160066926938,0.2191020635805912,0.7110847741215839,0.9025101091020066,0.4797589074540322,0.4997634851606012,0.5928471834913552,0.2541550474065812,0.6985917456776353,0.8821545738918135,0.4819256885633631,0.5079728389410239,0.5921779141104295,0.3014221974344674,0.6895426659230339,0.8413519493400473,0.4761882963302052,0.5178759441519799,0.5972253206915784,0.3568878973786949,0.6817205800334635,0.7834897383077745,0.4658274204623484,0.5158464942397193,0.6045593976575571,0.41804238706079194,0.6735359732292248,0.7073472190432594,0.4583962767986572,0.510429541466392,0.6136781929726716,0.475404350250976,0.6721137757947573,0.6250858319981689,0.45149919890135043,0.505455100328069,0.6234941438929169,0.5257110987172336,0.6744283324037925,0.5679102769512474,0.4632639047837034,0.4977492942702373,0.6337423312883436,0.561154489682097,0.6815950920245398,0.5127794308384832,0.47829404135194936,0.4997482261387045,0.6390686001115449,0.5802565532626883,0.6958310094813163,0.4865186541542687,0.4869001297016861,0.4990005340657664,0.6389012827663134,0.586154489682097,0.7202314556609035,0.46964217593652247,0.48172732127870604,0.5059586480506599,0.6439068600111545,0.5865448968209704,0.7473926380368099,0.4643472953383688,0.4836652170595865,0.501884489204242,0.6470580033463469,0.582989403234802,0.7778165086447295,0.46025787747005414,0.5191424429694057,0.4951705195696956,0.6462771890686002,0.5767986614612381,0.8090909090909091,0.4668650339513237,0.5162737468528268,0.4935530632486458,0.6460540992749582,0.5722113775794757,0.8346625766871165,0.4708323796444648,0.4926070038910506,0.49713893339436943,0.6488566648075851,0.5667596207473509,0.8529141104294479,0.47273975738155183,0.5036392767223621,0.4968642710002289,0.6453430005577244,0.5645287228109315,0.8645147796988288,0.4769207293812467,0.5058213168535897,0.4926985580224308,0.6397518126045734,0.5596904629113217,0.8709843837144451,0.48041504539559016,0.49839017318989853,0.4887464713511864,0.6392916899051868,0.5593558282208588,0.8706776352481874,0.48421454184786755,0.492988479438468,0.48799877927824825,0.6368795315114333,0.5595231455660904,0.8694506413831566,0.4851758602273594,0.48638132295719844,0.48885328450446325,0.6343697713329615,0.5592582264361405,0.8665504740658114,0.48847180895704584,0.4805676356145571,0.4939192797741665,0.632585052983826,0.5581148912437256,0.8629531511433353,0.4933852140077821,0.496055542839704,0.49362935835812927,0.6324874511991077,0.5588678192972671,0.8590630228667038,0.49489585717555507,0.49333943694209204,0.4980392156862745,0.6308839933073062,0.5592303402119353,0.8570412716118238,0.49570458533608,0.4912336919203479,0.5019302662699321,0.6327523703290575,0.5589235917456776,0.8543223647518126,0.49497215228503855,0.49619287403677426,0.5017776760509651,0.6335331846068042,0.5591187953151143,0.853499721137758,0.49399557488365,0.4956282902265965,0.5010910200656138,0.6331985499163414,0.5595649749023982,0.8539598438371445,0.495551995117113,0.48719005111772334,0.5006179903868162,0.635973229224763,0.559021193530396,0.8539737869492471,0.4916456855115587,0.48802929732204164,0.5003433279926757,0.0,left
0.6435443390964863,0.09063022866703849,0.9462493028443949,0.25101091020065613,0.6436560616464485,0.5713588158999008,0.6495398773006135,0.11178890128276632,0.9500836586726157,0.3519645990691997,0.6120393682764935,0.5379568169680323,0.6425915597694739,0.12841606246514223,0.9626324595649749,0.4515602349889372,0.5982452124818799,0.5152971694514381,0.6313789737869493,0.13808909648633574,0.9617435861684328,0.5530327306019684,0.5216144045166705,0.5034866865033951,0.6274679308421639,0.14291689905186838,0.948856664807585,0.646646829938201,0.44937819485770963,0.50083161669337,0.6272866703848299,0.1569715560513107,0.926031790295594,0.7320210574502174,0.4622720683604181,0.5026016632333867,0.6221695482431678,0.16179587283881763,0.8928471834913553,0.7917448691538872,0.5043106736858167,0.5087968261234455,0.6172615727830452,0.16013664249860568,0.8462632459564975,0.8316319523918517,0.49321736476691846,0.5093919279774166,0.6184327941996653,0.15865867261572783,0.7992610150585611,0.8558632791638056,0.4616006713969635,0.502937361715114,0.6160485220301172,0.1591885108756274,0.7621723368655884,0.8684824902723736,0.45525291828793774,0.5037155718318456,0.607877858337981,0.1632320133853876,0.7360987172336866,0.8834973678187228,0.47104600595101853,0.5131609063859006,0.5994562186279978,0.17027328499721137,0.7190602342442833,0.8972304875257496,0.46300450141145955,0.5259021896696422,0.5956358059118795,0.18439765755716675,0.7089096486335751,0.8954451819638362,0.43230334935530634,0.5278095674067292,0.5957055214723926,0.2062325711098717,0.7045872838817624,0.8893873502708476,0.4515144579232471,0.5217975127794309,0.595356943669827,0.2319297267150028,0.7016313441160067,0.8782940413519493,0.4457160296025025,0.5219348439765011,0.5956079196876742,0.2652398215281651,0.7025097601784718,0.8553749904631113,0.44478522926680397,0.5183642328526742,0.6002509760178472,0.3056887897378695,0.7041132180702733,0.819302662699321,0.4450598916609445,0.5176317998016328,0.6084076965978806,0.3513803680981595,0.7031372002230898,0.7805142290379187,0.4557106889448386,0.5176928358892195,0.6112102621305076,0.3973926380368098,0.7049219185722253,0.7327077134355687,0.459662775616083,0.5132982375829709,0.6179726715002789,0.44407417735638594,0.7059397657557167,0.681681544213016,0.4529335469596399,0.5066300450141146,0.6243586168432794,0.4880646960401562,0.7039737869492471,0.626993209735256,0.4720378423743038,0.5075303273060197,0.6282348020078081,0.524888455103179,0.7046151701059676,0.5689021133745327,0.4733653772793164,0.5036545357442588,0.6301589514779699,0.5523703290574457,0.711781929726715,0.5317463950560769,0.46805523765926604,0.5043717097734035,0.6355270496374791,0.5689626324595649,0.7192414947016174,0.5022507057297627,0.4740520332646677,0.5084306095979247,0.6385248187395427,0.5786530953708868,0.7359871723368656,0.4841229877164874,0.474540321965362,0.5083237964446479,0.6418432794199666,0.5792108198549917,0.7600669269380925,0.4773174639505608,0.4908064393072404,0.5103532463569085,0.6457612939208031,0.5781790295593976,0.7844813162297826,0.46585793850614177,0.48888380254825664,0.5058823529411764,0.6507947573898494,0.5732292247629671,0.8092442833240379,0.4592050049591821,0.4993820096131838,0.5008621347371633,0.6527746793084216,0.5686419408812047,0.8333379810373676,0.4628366521705959,0.5047837033646143,0.49445334554055087,0.6540435025097602,0.5650306748466257,0.8517707752370328,0.46588845654993516,0.4951247425040055,0.49234760051880677,0.6546848856664808,0.5596765197992192,0.8632320133853877,0.477256427862974,0.492988479438468,0.48802929732204164,0.6541550474065811,0.5540574456218628,0.8695900725041829,0.48584725719081406,0.5041123064011597,0.48925001907377735,0.6489263803680982,0.5491076408254322,0.8709704406023425,0.49282063019760436,0.490775921263447,0.4943770504310674,0.6462632459564975,0.5463190184049079,0.868920803123257,0.5019455252918288,0.4856336308842603,0.4934767681391623,0.6442972671500279,0.5460819854991634,0.8650725041829337,0.501731898985275,0.4986343175402457,0.4955367360952163,0.6409369771332962,0.5494283324037925,0.8601924149470161,0.5002059967956054,0.49362935835812927,0.4963912413214313,0.6397936419408813,0.5517010596765198,0.8561210262130508,0.5000381475547417,0.49576562142366676,0.494346532387274,0.640462911321807,0.5555911879531511,0.8534439486893474,0.49791714351110095,0.4929732204165713,0.49417868314641034,0.6394590072504183,0.5581706636921361,0.8517707752370328,0.4948195620660716,0.49283588921950106,0.4972457465476463,0.6376324595649749,0.558324037925265,0.850069715560513,0.49575036240177006,0.49318684672312507,0.4982070649271382,0.0,left
0.6349693251533742,0.0,0.7775376464026771,0.017074845502403294,0.4208133058670939,0.5555809872587167,0.6548731176798661,0.028339375348577802,0.7987311767986615,0.11163500419623103,0.5638971541924163,0.5657587548638132,0.6289040713887339,0.03843651236289271,0.8242470719464584,0.17416647592889295,0.5734187838559548,0.5633020523384451,0.6331218627997769,0.053994701617401004,0.8408568042387061,0.26369115739681087,0.5186846723125048,0.5387350270847638,0.641899051868377,0.07785833798103738,0.8618795315114333,0.3535210193026627,0.6160524910353247,0.5388113221942473,0.6388594534300055,0.11839096486335748,0.8985220301171221,0.45310139620050355,0.5712214847028305,0.511985961699855,0.6320831009481317,0.14930284439486896,0.9217094255437813,0.5451132982375829,0.527672236209659,0.49373617151140614,0.6425822643614055,0.1755856107083101,0.9262827663134412,0.6346684977492942,0.5047226672770275,0.48426031891355764,0.6369631901840491,0.18933351924149472,0.9159090909090909,0.7158312352178225,0.49323262378881516,0.48419928282597086,0.6238706079196876,0.18577802565532628,0.8858477412158394,0.7790341039139391,0.5045395590142672,0.488212405584802,0.6184606804238707,0.1743307306190742,0.8466954824316788,0.8260013733119707,0.5026474402990768,0.4915388723582818,0.6093697713329614,0.16274400446179585,0.8066369213608477,0.8581826504921034,0.4695201037613489,0.49279011215381097,0.6017010596765198,0.1568181818181818,0.7688929168990518,0.8751812008850233,0.46894026092927443,0.48969253070878155,0.595803123257111,0.15457334076965978,0.7419687674288901,0.8792553597314412,0.4653391317616541,0.4906538490882734,0.5930702732849972,0.15999721137757947,0.7208867819297267,0.8799877927824826,0.49950408178835737,0.4887312123292897,0.5885248187395427,0.17488845510317905,0.705925822643614,0.8793621728847181,0.46926070038910506,0.5161058976119631,0.5876882320133854,0.1921639709983268,0.6970440602342443,0.8649118791485466,0.4502937361715114,0.5013199053940642,0.5904350250976018,0.22078918014500837,0.6941578360290017,0.8509956511787594,0.4844892042420081,0.5058670939192798,0.5924707194645845,0.2565672058003346,0.6948410485220301,0.8219272144655527,0.46842145418478676,0.5146410315098802,0.5966815393195761,0.29852203011712214,0.6994980479643057,0.8012664988174258,0.486152437628748,0.5113145647364004,0.6046988287785833,0.34135527049637476,0.7050892359174568,0.7700617990386817,0.4848096437018387,0.5135271229114213,0.6099832682654769,0.389765755716676,0.7105549358616844,0.7355611505302511,0.48751049057755397,0.5132677195391775,0.611266034578918,0.4327802565532627,0.7156860011154489,0.6909437705043107,0.4845044632639048,0.516716258487831,0.6152119353039599,0.4744283324037925,0.7200780814277746,0.6427557793545434,0.47832455939574275,0.5124284733348592,0.6151840490797547,0.5069018404907976,0.7243167875069716,0.6024414435034714,0.47179369802395665,0.5083848325322347,0.617122141662019,0.5339654210819855,0.7298522030117122,0.5633630884260319,0.47267872129396504,0.5119096665903715,0.6179029559397659,0.5517568321249302,0.7390964863357502,0.5344777599755856,0.4724193179217212,0.5129320210574502,0.6214863357501395,0.5636781929726715,0.7522866703848299,0.5125352864881361,0.4649118791485466,0.5138780804150453,0.6270635805911879,0.5707473508087005,0.7664947016174011,0.4976729991607538,0.4793011367971313,0.5120317387655451,0.6303262688232013,0.575334634690463,0.7843139988845511,0.48674753948271915,0.482734416723888,0.506157015335317,0.6349972113775795,0.5770496374790853,0.8030256553262688,0.48000305180437935,0.48542000457770657,0.5018997482261387,0.6383714445064138,0.5779977691020636,0.8203151143335192,0.4720836194399939,0.4964217593652247,0.5001602197299153,0.6397099832682654,0.5761154489682097,0.8355549358616844,0.47089341573205157,0.4955214770733196,0.4938582436865797,0.636781929726715,0.5722671500278862,0.8486335750139431,0.4758220798046845,0.49005874723430226,0.48964675364309146,0.6365170105967652,0.5689905186837703,0.8578639152258785,0.47994201571679257,0.4912336919203479,0.48889906157015334,0.6337423312883436,0.5658114891243725,0.8648354712771891,0.48337529564354925,0.4874189364461738,0.4912031738765545,0.6329615170105968,0.5625906302286671,0.8676240936977134,0.4906691081101701,0.4926680399786374,0.4903791866941329,0.6309537088678193,0.5617261572783044,0.8676659230340211,0.49361409933623257,0.5008468757152666,0.4919661249713893,0.6280953708867819,0.5617540435025098,0.8667875069715562,0.4955977721828031,0.4910963607232776,0.4922407873655299,0.62643614054657,0.5634272169548243,0.863106525376464,0.4931563286793317,0.49181353475242234,0.4959182116426337,0.0,left
0.6808421639709983,0.07612939208031233,0.9663970998326826,0.26082246128023195,0.6690012970168612,0.5659876401922637,0.6703848298940324,0.09739263803680982,0.9769241494701617,0.36008239871824216,0.6037994964522774,0.543953612573434,0.6713840862613869,0.11684327941996654,0.9836865588399331,0.465293354695964,0.5681696803234912,0.5200122072175174,0.661164947016174,0.12949665365309537,0.9780221695482432,0.5751888303959716,0.5137712672617685,0.5047684443427176,0.6574874511991077,0.13513664249860566,0.9635945343000557,0.671671625848783,0.46544594491493096,0.49823758297093157,0.6497490239821528,0.1470580033463469,0.9404350250976018,0.7575036240177004,0.4899671931029221,0.5120012207217517,0.6439765755716677,0.1494980479643056,0.9052565532626883,0.8261539635309376,0.4984512092774853,0.5177843900205997,0.6332543223647518,0.14249860568878975,0.8628694924707194,0.8805828946364538,0.4938277256427863,0.5154192416266117,0.6324735080870051,0.13252928053541552,0.8232431678750698,0.9174792095826657,0.4915846494239719,0.5167925535973145,0.6256692693809258,0.12608756274400448,0.7898215281650866,0.9468070496681162,0.47829404135194936,0.5122301060502021,0.6188232013385387,0.12750976017847185,0.7634132738427216,0.9622644388494698,0.47481498435950253,0.5123826962691691,0.6112242052426101,0.1345092024539877,0.7411740100390407,0.9670557717250324,0.46019684138246736,0.5202716105897612,0.6050195203569436,0.15216118237590634,0.7221277189068601,0.9748226138704509,0.4465094987411307,0.5123674372472724,0.6001533742331289,0.1814277746793084,0.7052147239263804,0.9639276722362097,0.46074616617074843,0.517265583276112,0.5985917456776353,0.2202732849972114,0.6923312883435583,0.9327382314793622,0.44521248187991147,0.5165484092469673,0.5975320691578361,0.2722113775794758,0.6814696040156163,0.8806286717021439,0.4660563057907988,0.5152208743419546,0.6022587841606246,0.33510875627440045,0.6738008923591746,0.8213778896772717,0.4729228656443122,0.5162432288090334,0.6065114333519241,0.39796430563301727,0.6678053541550474,0.7501640344853895,0.454184786755169,0.5123521782253757,0.6122141662018963,0.46154489682097044,0.66351087562744,0.6718547341115434,0.44927138170443276,0.5044632639047837,0.6209704406023425,0.5202035694366983,0.661893474623536,0.595025558861677,0.4661326009002823,0.504600595101854,0.6257808142777468,0.5615867261572782,0.66925543781372,0.5371786068513008,0.46543068589303427,0.5062333104448005,0.6321249302844395,0.5869910764082543,0.6808421639709983,0.5064774547951476,0.4784924086366064,0.5033035782406348,0.637520914668154,0.6030814277746793,0.700446179587284,0.4772106507972839,0.4797894254978256,0.5097581445029373,0.6383575013943112,0.6058979364194088,0.7299776910206358,0.4682383459220264,0.4788738841840238,0.507164110780499,0.6409230340211935,0.6031232571109872,0.7614751812604573,0.4498817425803006,0.5156176089112687,0.5151293202105744,0.6420663692136084,0.5987311767986615,0.7924707194645846,0.4491340505073625,0.503593499656672,0.5051346608682383,0.6429587283881762,0.5939486893474624,0.8235778025655326,0.45346761272602426,0.5019607843137255,0.49881742580300603,0.644994422755159,0.587297824874512,0.8478667038482989,0.45696192874036773,0.5144579232471198,0.49907682917524987,0.6443669827105409,0.5815253764640268,0.8643056330172895,0.46643778133821623,0.5090257114518959,0.49614709697108417,0.6408254322364751,0.574484104852203,0.8760457334076966,0.4789349202716106,0.486854352635996,0.4959639887083238,0.6440044617958729,0.5701338538761852,0.8800195203569436,0.4907606622415503,0.5007553215838865,0.4976882581826505,0.6404768544339097,0.5665783602900167,0.8789737869492471,0.49881742580300603,0.5048599984740978,0.4965285725185016,0.6369492470719464,0.5667735638594534,0.8768544339096487,0.5064164187075608,0.49250019073777374,0.49491111619745176,0.6379670942554378,0.5685861684327942,0.8709425543781372,0.5036240177004654,0.48345159075303273,0.49655909056229497,0.6377718906860012,0.5718767428890128,0.8650446179587284,0.500526436255436,0.4878919661249714,0.4972304875257496,0.6361823759063022,0.5739403234802009,0.8594116006692694,0.5009842069123369,0.49059281300068663,0.495551995117113,0.6360290016731736,0.5765616285554936,0.8547964305633018,0.501029983978027,0.4959487296864271,0.49141680018310824,0.6366564417177915,0.5786809815950921,0.8505716675962075,0.4954757000076295,0.49581139848935685,0.4939497978179599,0.6361266034578918,0.5790295593976575,0.8484523145566091,0.4908369573510338,0.48371099412527657,0.49327840085450525,0.6362102621305075,0.5779559397657558,0.8484244283324037,0.4890211337453269,0.4899366750591287,0.49137102311741815,0.0,left
0.6290443430284041,0.16143314488113888,0.808391798923779,0.7244983596551461,0.5010452429999237,0.5088120851453422,0.6350044274913154,0.16173966351066005,0.786390572849261,0.7893492027161059,0.5279926756694896,0.5094071869993133,0.6253661194741502,0.1600935449447131,0.7720182548872693,0.8289463645380332,0.5314259555962463,0.5174639505607691,0.6224541924936994,0.16138205844288536,0.7590933860091275,0.8593118181124589,0.5013046463721675,0.5156328679331655,0.6169334513997684,0.16380355561610246,0.7476602411279886,0.8803845273517967,0.48339055466544595,0.5134203097581445,0.6097404808936722,0.16863973843743615,0.7267624821197466,0.8932326237888152,0.46346227206836044,0.5094529640650034,0.5985150875280975,0.17940194809617874,0.7130168244669981,0.8960708018616007,0.44602121004043643,0.5154650186923018,0.5962945303453444,0.1987058102309107,0.7031264900211157,0.8901045242999923,0.4503852903028916,0.5122148470283054,0.5888699679858321,0.22191948777331244,0.6994755125672638,0.8845960173952849,0.45731288624399175,0.5124132143129625,0.5913493631224032,0.25090933860091275,0.7012873782439889,0.8735790035858702,0.4832074464026856,0.5111009384298466,0.5884885225802058,0.28493971800286083,0.7034125740753354,0.8590218966964217,0.48839551384756236,0.5082627603570611,0.5903685035079355,0.32074109393093114,0.7077447040392344,0.8350652323186084,0.479468986037995,0.5117723353933012,0.5911586404195899,0.3573326067706559,0.7131666780192085,0.8133058670939193,0.4960250247959106,0.5110704203860532,0.5947551256726381,0.3967032218513725,0.7171854778284859,0.7775997558556497,0.4956740672922866,0.5108262760357061,0.5919624003814454,0.43528370002043454,0.7171718547782848,0.7416800183108263,0.47147325856412603,0.5082780193789578,0.5964716299979564,0.4762209658742592,0.7151420202983448,0.6898908979934386,0.46169222552834366,0.509773403524834,0.600476806757033,0.5113548123424835,0.7134527620734283,0.6435034714274815,0.46962691691462577,0.49294270237277793,0.6036646005040528,0.5423063823990192,0.7109052516858524,0.5884184023804074,0.49103532463569083,0.49712367437247273,0.6054219739799742,0.5665417887064914,0.7093930931135481,0.5415732051575494,0.4809643701838712,0.5017929350728618,0.6056399427831891,0.5826442340440025,0.7157686806075881,0.510124361028458,0.44885938811322196,0.4976882581826505,0.6091274436346298,0.5871943328111164,0.7259995913084939,0.4971999694819562,0.44686045624475473,0.5018997482261387,0.6102445337511069,0.5903548804577344,0.7399223486138546,0.479819943541619,0.45973907072556647,0.5102464332036316,0.6112935086165793,0.587289694162523,0.7591444724473809,0.4799114976729992,0.46924544136720836,0.5062027924010071,0.6174783734078061,0.5843471153191199,0.7783938423813092,0.4749217975127794,0.4918898298619058,0.5089951934081025,0.6233362849942102,0.5824943804917921,0.7940467270621892,0.4691081101701381,0.5048142214084077,0.5102159151598382,0.6245896056126967,0.5818132279817452,0.8106123561065323,0.47392996108949415,0.47911802853437097,0.506706340123598,0.6285675362713712,0.5796880321503984,0.823172808391799,0.47437247272449834,0.4906538490882734,0.5029526207370107,0.6300252026428718,0.5777808051222668,0.8310878005585451,0.476249332417792,0.495201037613489,0.5012588693064775,0.6287718820243853,0.5733533138069613,0.8389074313738846,0.4813916227969787,0.4942854962996872,0.5018692301823453,0.6304066480484981,0.5700292895579321,0.8431850691369798,0.4882734416723888,0.49701686121919586,0.5011215381094072,0.630651862952115,0.5673591717185478,0.8444656358558682,0.4935072861829557,0.4872663462272068,0.49907682917524987,0.628594782371773,0.5651931067365984,0.8439479599482325,0.4959639887083238,0.48424505989166094,0.49967193102922103,0.6297663646890539,0.565479190790818,0.8416184183638716,0.4959792477302205,0.49318684672312507,0.5000686655985351,0.6295892650364416,0.5665417887064914,0.8376813568558,0.49660486762798506,0.4915388723582818,0.49628442816815443,0.6293440501328247,0.5669368571623187,0.835188338669028,0.4938124666208896,0.49086747539482717,0.4948195620660716,0.6299162182412642,0.5677406171241741,0.8318643144199986,0.49019607843137253,0.49289692530708784,0.4969253070878157,0.62927593488182,0.5690211838430624,0.8282542061167496,0.4911879148546578,0.4977950713359274,0.49504844739452203,0.62840405966896,0.5692391526462774,0.8285266671207684,0.4899366750591287,0.4870527199206531,0.49373617151140614,0.6295892650364416,0.5687078536884409,0.8283359444179551,0.4886701762417029,0.5071335927367056,0.49662012664988175,0.6265377017914312,0.5682855391322117,0.8290307199782031,0.48889906157015334,0.5005874723430228,0.4955672541390097,0.0,left
0.6673251140930454,0.0,0.776173285198556,0.12271305409323262,0.46712443732356757,0.6334630350194552,0.7035624276275458,0.019004155030311286,0.793202097949731,0.21910429541466392,0.5855802243076219,0.645593957427329,0.6981813227981745,0.05038258065980975,0.8113207547169812,0.3160143434805829,0.710780498970016,0.5939726863508049,0.6799604931544173,0.08146584020162115,0.8326067706559499,0.40160219729915314,0.6106050202182041,0.5470511940184635,0.6790409372658538,0.10316735917171857,0.8389891696750903,0.4810101472495613,0.5268787670710308,0.5131609063859006,0.671711736257748,0.14238812070022475,0.8524487432736189,0.5650873579003586,0.5134203097581445,0.4835126268406195,0.6473809685988693,0.16911654519446906,0.8490429807233839,0.6506446936751354,0.4624093995574884,0.4724956130312047,0.6344663170083782,0.17654110755398134,0.8247122130645052,0.7304798962386511,0.4570687418936446,0.4737163347829404,0.6340984946529529,0.16926639874667937,0.7839656699134936,0.7987487602044709,0.5170519569695583,0.4803387502861067,0.6155439002792725,0.15691029221442684,0.7448811388869968,0.8381780727855345,0.49994659342336156,0.48545052262149996,0.6096042503916628,0.14210203664600501,0.7041890879367891,0.8647745479514763,0.4699626153963531,0.4771801327534905,0.6077651386145358,0.131666780192085,0.671521013554935,0.8850232700083924,0.4889600976577401,0.4818036163881895,0.6075471698113207,0.1279068183366256,0.6515768680607588,0.8996566720073244,0.5267872129396506,0.48293278400854506,0.6023567876847626,0.12838362509365847,0.6378720795586132,0.9091477836270695,0.5308308537422751,0.49056229495689324,0.6021660649819495,0.13612151760779237,0.6314147537633675,0.8996566720073244,0.49419394216830703,0.48883802548256655,0.6000953613514066,0.15037122811797565,0.6321640215244193,0.8902113374532692,0.4729076066224155,0.4878767071030747,0.5996458006947756,0.17500170288127512,0.6334990804441114,0.8804608224612802,0.4877698939497978,0.4860914015411612,0.5909542946665758,0.20644370274504462,0.6416047953136708,0.8523079270618753,0.5050125886930648,0.49330891889829864,0.5922484844356651,0.24503780396430758,0.6525849737756284,0.8274204623483634,0.47354848554207674,0.49184405279621574,0.5931884748995301,0.2920918193583543,0.6627477692255296,0.787685969329366,0.4579995422293431,0.4890821698329137,0.5970437981063961,0.3400313330154622,0.6758667665690348,0.7484397650110628,0.4557259479667353,0.49459067673762114,0.5942919419658061,0.3865404264014713,0.6922280498603638,0.7140764476997025,0.48001831082627605,0.49919890135042344,0.6000681152510047,0.430638239901914,0.7021864995572508,0.6806439307240406,0.48134584573128864,0.4920576791027695,0.6014576663715006,0.4694094407737892,0.7126898712621756,0.6401159685664148,0.4797436484321355,0.4981612878614481,0.6034466317008379,0.5014372317961991,0.7178938764389347,0.587182421606775,0.4841077286945907,0.49872587167162585,0.6046318370683196,0.5265172672161297,0.7249506164430216,0.546669718471046,0.45809109636072326,0.5018234531166552,0.6100674340984946,0.5411211770315374,0.7322798174511274,0.5246509498741131,0.4574196993972686,0.49410238803692685,0.6139500034057626,0.5508207887746066,0.74144813023636,0.5048142214084077,0.4818188754100862,0.5024032959487297,0.6137865268033512,0.5540630747224303,0.7544308970778557,0.4934004730296788,0.4757305256733043,0.49739833676661327,0.621796880321504,0.5509297731762142,0.7729446223009332,0.4906691081101701,0.4785839627679866,0.5033798733501182,0.6241536680062667,0.5479190790818064,0.787303317212724,0.48923476005188066,0.4993362325474937,0.5055313954375524,0.6248620666167155,0.5485729854914516,0.8040051767590763,0.4898451209277485,0.4798962386511025,0.5050125886930648,0.6278591376609223,0.5469927116681425,0.8186363326748859,0.4881971465629053,0.47466239414053557,0.5050888838025482,0.6333492268919011,0.547551256726381,0.8259110414821879,0.4895857175555047,0.5005569542992294,0.49912260624093996,0.633376472992303,0.5465022818609087,0.83246372862884,0.4897993438620584,0.49613183794918747,0.49571984435797667,0.6335671956951161,0.5460390981540767,0.8362373135345004,0.4894941634241245,0.4877851529716945,0.4994583047226673,0.6365642667393229,0.5442953477283564,0.8350793542674204,0.4942244602121004,0.4811474784466316,0.49617761501487756,0.6356651454260609,0.5432327498126831,0.8359784755806825,0.496910048065919,0.49571984435797667,0.4931258106355383,0.6333356038417002,0.5434098494652952,0.8362509365847013,0.4942397192339971,0.4899061570153353,0.4968947890440223,0.6334718343437096,0.5438730331721273,0.8344935631087801,0.4971999694819562,0.48667124437323567,0.4951705195696956,0.0,left
0.6287718820243853,0.0,0.6503644165928751,0.0,0.49622339208056765,0.5742427710383764,0.6553368299162182,0.0037803964307608472,0.6628295075267352,0.027481498435950255,0.5470054169527734,0.5834744792858778,0.6609676906659401,0.0025202642871738983,0.6956610585110006,0.09907682917524986,0.6605783169298848,0.5731441214618143,0.6574484026973639,0.01450854846400109,0.7300252026428717,0.21689173723964295,0.6683451590753032,0.5755855649652857,0.656058851576868,0.03603296778148628,0.7605612696682786,0.32353704127565425,0.6138551918822004,0.5734645609216449,0.6609767726994074,0.06408282814522173,0.8139363803555616,0.43485160601205464,0.6283512626840619,0.5464560921644922,0.6477760370546966,0.09489816769974796,0.8609359035488046,0.5371023117418173,0.5721065079728389,0.5175249866483559,0.6322730059260269,0.12594509910769022,0.8782099312035965,0.6263523308155947,0.4703440909437705,0.4923018234531167,0.6252162659219399,0.14584837545126353,0.8668074381854097,0.7075761043717098,0.45941863126573584,0.4856031128404669,0.6126421905864724,0.14885906954567124,0.8349295007152102,0.7735255970092317,0.46643778133821623,0.4955062180514229,0.5985014644778966,0.14606634425447856,0.7881070771745794,0.8212252994583047,0.4524605172808423,0.5031662470435645,0.595681493086302,0.13557659559975477,0.7377154144813023,0.8577401388570992,0.4674296177615015,0.5062180514229038,0.5962809072951434,0.12450105578639059,0.6972549553845105,0.8916304264896621,0.509269855802243,0.5116502632181277,0.5936516586063619,0.11567331925618145,0.6700224780328315,0.9087663080796521,0.5085221637293049,0.5149919890135042,0.5946052721204277,0.11323479327021317,0.6537429330427083,0.9219195849546045,0.5086594949263752,0.5257038223849851,0.5985832027791022,0.11688577072406511,0.6451195422655133,0.9436636911573968,0.49921416037232014,0.533852140077821,0.5933519515019413,0.12966419181254685,0.6451740344663169,0.937773708705272,0.4601358052948806,0.5219806210421912,0.5949049792248484,0.1540766977726313,0.6472038689462571,0.9172198062104219,0.40660715648126955,0.4903181506065461,0.5921122539336557,0.18532797493358763,0.650405285743478,0.894651712825208,0.4496223392080568,0.492637521934844,0.5883931612287991,0.22627886383761325,0.6563449356310878,0.8630960555428397,0.44237430380712595,0.4798352025635157,0.5857094203392139,0.2786594918602275,0.6620529936652817,0.8260929274433508,0.4481727321278706,0.5013046463721675,0.5907090797629589,0.3365574552142225,0.6579388325045978,0.7833371480888075,0.44104676890211336,0.5120317387655451,0.5917308085280295,0.3975750970642327,0.656058851576868,0.6982375829709315,0.4392614633401999,0.501029983978027,0.5985968258293032,0.4551324841632042,0.6556637831210408,0.6191958495460441,0.406485084306096,0.49173723964293886,0.6123288604318508,0.500783325386554,0.6513588992575438,0.5570000762951095,0.4184786755168994,0.4902113374532692,0.6220012260745181,0.5335603841700156,0.6554594373680267,0.5129320210574502,0.4264133669031815,0.483588921950103,0.6309788161569375,0.5521013554934949,0.6722702813159867,0.48850232700083923,0.4451209277485313,0.4890058747234302,0.6367004972413323,0.5565833390096042,0.693740208432668,0.47351796749828334,0.4665293354695964,0.49571984435797667,0.6437436141952183,0.553245691710374,0.7202506641236973,0.47357900358587013,0.49011978332188905,0.5058670939192798,0.6439207138478305,0.5494993529051154,0.7539949594714256,0.4740978103303578,0.47879758907454034,0.5069657434958419,0.6475580682514814,0.5429330427082624,0.7824671343913903,0.4677195391775387,0.4772869459067674,0.5073167009994659,0.6515496219603569,0.5382330903889381,0.805667188883591,0.4620431830319677,0.4976424811169604,0.5007858396276799,0.6543832164021525,0.5331925618145903,0.8236632381990329,0.4673685816739147,0.49015030136568244,0.4942549782558938,0.6552959607656154,0.530999250732239,0.8344935631087801,0.4690165560387579,0.481025406271458,0.49495689326314185,0.65811593215721,0.5260949526599006,0.8366732511409305,0.48006408789196614,0.4886243991760128,0.492988479438468,0.6595327293781078,0.5220897759008242,0.8371636809481643,0.48844129091325245,0.49578088044556345,0.49143205920500493,0.656058851576868,0.5198283495674682,0.8350521081670186,0.48935683222705423,0.49236285954070347,0.4963912413214313,0.6547510387575778,0.519174443157823,0.832926912335672,0.4907454032196536,0.47638666361486226,0.49541466392004274,0.6553504529664193,0.519869218718071,0.829507526735236,0.4942854962996872,0.4977492942702373,0.4938277256427863,0.6523942510728151,0.5210544240855528,0.8282269600163477,0.4916456855115587,0.49956511787594415,0.4946822308690013,0.0,left
0.6223009331789388,0.03937061508071657,0.6167154825965534,0.0,0.40317387655451287,0.5953612573434043,0.6341189292282542,0.019685307540358285,0.6546216197806689,0.0,0.46669718471046007,0.6118104829480431,0.6391026950934314,0.013123538360238877,0.6738641781894966,0.04866102082856489,0.5449759670405127,0.6111543450064851,0.6445916490702268,0.015019412846536339,0.6966657584633199,0.13420309758144502,0.6669108110170138,0.6127412832837416,0.6408010353518153,0.02589741843198691,0.7188474899530004,0.22334630350194554,0.6599832150759136,0.6079499504081788,0.644506505006471,0.047939513657107836,0.7595531639534092,0.3022659647516594,0.5935606927595941,0.5946135652704662,0.6437981063960221,0.0806075880389619,0.7959130849397179,0.36057068741893644,0.5176623178454262,0.5648584725719081,0.6579252094543968,0.11597302636060217,0.8260745180845992,0.4366521705958648,0.49137102311741815,0.5174486915388724,0.6637558749403992,0.1435188338669028,0.8424766705265309,0.515403982604715,0.5502708476386664,0.48462653543907835,0.6654042640147129,0.15827259723452083,0.8451467883659152,0.6105134660868239,0.49665064469367515,0.4723735408560311,0.6676656903480689,0.1553027722907159,0.8349976159662149,0.7038071259632258,0.4832532234683757,0.4741741054398413,0.6690007492677611,0.14806893263401677,0.8065526871466522,0.7806515602349889,0.5356069275959411,0.4768139162279698,0.6460595327293781,0.13647571691301685,0.7753967713371024,0.8338750286106661,0.5168383306630046,0.477759975585565,0.6345480553095838,0.1291328928547102,0.7396362645596349,0.8720378423743038,0.5061264972915236,0.4712443732356756,0.6331040119882843,0.12346570397111915,0.7063415298685375,0.9016556038757916,0.5650110627908751,0.47144274052033264,0.6179143110142361,0.1256726381036714,0.6823240923642804,0.919523918516823,0.5589227130540932,0.4856794079499504,0.6022069341325523,0.133710237722226,0.6646413732034603,0.920027466239414,0.46807049668116274,0.4961013199053941,0.601348681969893,0.15075267352360192,0.6497377562836318,0.9146410315098802,0.48419928282597086,0.48216983291371024,0.5906682106123561,0.18130917512431036,0.6448743273618963,0.8875257495994506,0.46301976043335624,0.48891432059205003,0.5818813432327499,0.22420816020707038,0.6425856549281384,0.840360112916762,0.41947051194018464,0.481879911497673,0.5855595667870036,0.27432736189632856,0.6404740821469926,0.7934538796063172,0.4144960708018616,0.4805981536583505,0.5920986308834548,0.3321435869491179,0.6434439070907976,0.7361257343404288,0.42659647516594185,0.4797436484321355,0.5952046863292692,0.39070907976295893,0.6495197874804169,0.6694895857175555,0.4307927061875334,0.4757763027389944,0.6052857434779647,0.4413459573598528,0.6556365370206388,0.5967498283360037,0.4437933928435187,0.4793621728847181,0.6142088413595804,0.47921803691846604,0.6685784347115319,0.5506675822079805,0.44884412909132526,0.48122377355611506,0.6223009331789388,0.5066139908725564,0.6860704311695389,0.5236896314946212,0.4496223392080568,0.47994201571679257,0.6301750561950821,0.5200735644710851,0.7056467543082896,0.5062027924010071,0.46848249027237354,0.48673228046082245,0.6355152918738506,0.5263674136639194,0.7297323070635516,0.49008926527809565,0.46416418707560847,0.49712367437247273,0.6402833594441796,0.5231796199168994,0.7549349499352905,0.48876173037308307,0.48299382009613184,0.4943312733653773,0.6468360465908317,0.5223077447040393,0.7747019957768544,0.4965438315403983,0.5136339360646982,0.4980697337300679,0.6482392207615285,0.5169402629248688,0.7933383284517403,0.4968642710002289,0.5018387121385519,0.5030594338902876,0.6504734009944827,0.5154417274027655,0.8054628431305769,0.4964370183871214,0.4912184328984512,0.5039291981383993,0.6522852666712078,0.5124855255091615,0.8133642122471221,0.4935530632486458,0.49292744335088123,0.5026932173647669,0.6530345344322595,0.5120223418023295,0.8196716844901574,0.49416342412451364,0.4890363927672236,0.503746089875639,0.6529527961310537,0.5118043729991145,0.8248348205163136,0.4960708018616007,0.48970778973067824,0.4998550392919814,0.6562768203800831,0.5121313262039371,0.826537701791431,0.5002517738612955,0.5051804379339284,0.4942702372777905,0.6551869763640078,0.5108507594850488,0.8286901437231796,0.4960860608834974,0.4993667505912871,0.49782558937972077,0.6543559703017506,0.5097881615693753,0.8288672433757919,0.5006179903868162,0.4839551384756237,0.496757457846952,0.6539609018459233,0.5109188747360535,0.8270962468496696,0.5010910200656138,0.4922713054093233,0.49791714351110095,0.6519855595667869,0.510796267284245,0.8244261290102853,0.5008468757152666,0.49378194857709623,0.49872587167162585,0.0,left
0.6272733465022818,0.13418704447925892,0.9500034057625503,0.40363164721141376,0.5858701457236591,0.5551689936675059,0.6321435869491179,0.15295279613105375,0.9527280158027382,0.5089341573205157,0.5498435950255589,0.5325703822384985,0.6305428785505075,0.16695048021251957,0.9427604840723839,0.6083772030212863,0.542397192339971,0.512184328984512,0.6212962332266194,0.1687044479258906,0.9245793883250459,0.6900282291905089,0.49495689326314185,0.5068741893644617,0.6146039098154077,0.16621483550166882,0.9018459233022273,0.7662165255207142,0.46094453345540554,0.5064164187075608,0.606593556297255,0.16753627137116003,0.8662488931271711,0.8236820019836728,0.45973907072556647,0.5075913633936064,0.5957768544377087,0.15933519515019412,0.8235814998978271,0.8624856946669719,0.46428625925078204,0.5077439536125734,0.5877120087187522,0.1459028676520673,0.7832981404536477,0.8895094224460212,0.4762645914396887,0.506858930342565,0.5844697227709285,0.13533138069613787,0.7497718139091343,0.909727626459144,0.4844892042420081,0.5121232928969253,0.5821129350861658,0.13249778625434233,0.7252503235474422,0.9180132753490501,0.4777752346074617,0.5070878156710155,0.579361078945576,0.13891424289898505,0.7076629657380288,0.9072251468680858,0.43523308155947205,0.5013962005035477,0.5812683059737075,0.15177440228867242,0.6936857162318644,0.9035172045471885,0.43262378881513697,0.4915388723582818,0.5854233362849942,0.17798515087528097,0.6846400108984402,0.8803540093080033,0.4603494316014343,0.47598992904554815,0.5880389619235747,0.21299638989169675,0.6810162795449901,0.8437018387121386,0.4371557183184558,0.47479972533760584,0.5913221170220013,0.25050064709488457,0.6792452830188679,0.812314030670634,0.4329594872968643,0.46758220798046846,0.5945780260200259,0.29230978816156933,0.6777195013963627,0.7700617990386817,0.4004425116350042,0.4645151445792325,0.5964580069477556,0.3397997411620462,0.6787412301614332,0.727718013275349,0.39803158617532614,0.45435263599603265,0.5977930658674477,0.3829030719978203,0.6780464546011852,0.6830701152056153,0.41031509880216677,0.46292820630197606,0.6027246100401881,0.42305020093999046,0.6756215516654178,0.639658197909514,0.4293888761730373,0.47481498435950253,0.6086506368775969,0.46307472243035214,0.6757714052176282,0.6035553521019302,0.4366521705958648,0.47479972533760584,0.6176146039098155,0.4974048089367209,0.6785913766092228,0.560997940032044,0.4540932326237888,0.4890363927672236,0.6232000544922008,0.5245010557863906,0.6860023159185342,0.5245899137865263,0.4661020828564889,0.49967193102922103,0.6298072338396568,0.5416933451399769,0.6998160888222873,0.5127489127946898,0.4571908140688182,0.503242542153048,0.6390981540766978,0.554131189973435,0.7158776650091955,0.49542992294193944,0.4911726558327611,0.5150377660791943,0.6451195422655133,0.5583543355357266,0.7354676111981472,0.48674753948271915,0.5044174868390936,0.5143511100938429,0.6484980587153464,0.5567468156120156,0.758231728083918,0.48085755703059435,0.4980544747081712,0.5122606240939955,0.6549417614603911,0.5518561405898781,0.7797561474014032,0.4737163347829404,0.48331425955596247,0.5159075303273061,0.6592738914242898,0.546883727266535,0.7984469722770928,0.47603570611123824,0.5066910811017014,0.5073319600213626,0.6600231591853416,0.541420884135958,0.8172876507049929,0.4758678568703746,0.5102464332036316,0.5028305485618372,0.6625298004223146,0.5364076016620122,0.8301478100946802,0.4848859388113222,0.4914625772487983,0.4994125276569772,0.6640010898440162,0.5322798174511273,0.8376949799060011,0.49085221637293047,0.4972915236133364,0.4968490119783322,0.6640555820448198,0.5286015938968734,0.8404740821469927,0.4954909590295262,0.49581139848935685,0.4946822308690013,0.6620938628158846,0.5275662420816021,0.8376404877051972,0.49658960860608836,0.4994430457007706,0.49372091248950944,0.6586199850146448,0.5279476874872284,0.8338669027995368,0.4935378042267491,0.49094377050431065,0.4934157320515755,0.6556910292214427,0.5293508616579252,0.8303249097472925,0.4938124666208896,0.4807354848554208,0.49372091248950944,0.6546420543559702,0.5315986649410803,0.8261835024862068,0.48964675364309146,0.4887006942854963,0.4939345387960632,0.6532116340848716,0.5326612628567536,0.8232000544922008,0.4919966430151827,0.49573510337987337,0.4934767681391623,0.651086438253525,0.5332743001157959,0.8243307676588788,0.48888380254825664,0.49823758297093157,0.4947127489127947,0.6517403446631701,0.5327157550575574,0.8252843811729447,0.4908369573510338,0.49291218432898454,0.49492637521934846,0.6529391730808528,0.5323070635515292,0.827028131598665,0.495902952620737,0.49655909056229497,0.496406500343328,0.0,left
0.671956951161365,0.08637013827395953,0.8645187657516518,0.20804150453955902,0.547478446631571,0.5546196688792249,0.6531230842585655,0.11753286560860977,0.8791976023431647,0.27209887846189057,0.6702372777904936,0.5369954985885405,0.6256612855618373,0.13559475966668938,0.8959426015484866,0.3611810482948043,0.6137331197070268,0.5179980163271535,0.6174136639193516,0.1447449083849874,0.9005176759076358,0.45217059586480507,0.5113908598458838,0.5157396810864424,0.6146311559158095,0.14861385464205437,0.9009331789387645,0.5518577859159228,0.4968337529564355,0.5097276264591439,0.6018391117771269,0.16275458075063004,0.8992847898644506,0.6626993209735256,0.47995727473868927,0.5157396810864424,0.5976840814658402,0.16037054696546554,0.8825829303180983,0.7521171892881666,0.4599832150759136,0.5257038223849851,0.6104761256045228,0.15109324977862543,0.8522580205708058,0.818448157473106,0.46643778133821623,0.5261158159761959,0.6186499557250869,0.13945916490702265,0.8175464886588106,0.8643167772945755,0.48749523155565727,0.5163347829404136,0.6219058647231116,0.1298957836659628,0.7795109324977862,0.8950179293507287,0.4969405661097124,0.5037766079194324,0.6207887746066344,0.12428308698317556,0.7479735712826102,0.9103685053788052,0.4552986953536278,0.4968337529564355,0.6180777876166473,0.12598596825829306,0.7221578911518289,0.922041657129778,0.43987182421606774,0.49243915465018695,0.6106259791567332,0.13560384170015669,0.7014099856957973,0.9235065232318609,0.43739986266880293,0.4919203479056992,0.6019208500783325,0.15227845514610724,0.6868469450309924,0.9210193026626993,0.4155489433127337,0.485297932402533,0.5961038076425311,0.17903412574075334,0.6765887882296846,0.903746089875639,0.41898222323949036,0.48545052262149996,0.5957632313875076,0.2143723179619917,0.6674885906954567,0.8785381857022965,0.41951628900587473,0.4773632410162509,0.5948913561746475,0.2591649070226824,0.6643825352496423,0.8396124208438239,0.4420386053253986,0.48168154421301596,0.5955452625842926,0.31244465635855867,0.6627750153259315,0.8046845197222858,0.4329594872968643,0.48290226596475166,0.6002452149036169,0.3701110278591377,0.6639193515428105,0.746318760967422,0.4453650720988785,0.48891432059205003,0.6044274913153055,0.42638784823922077,0.668101627954499,0.6921034561684596,0.43558403906309606,0.4835431448844129,0.6082555684217695,0.48037599618554594,0.6725972345208092,0.6259250782024872,0.3963988708323796,0.4809948882276646,0.6193174851849329,0.5229752741638853,0.677188202438526,0.5588006408789197,0.4119172961013199,0.47182421606775005,0.6289217355765957,0.5536407601662012,0.6839452353381922,0.5024032959487297,0.4662394140535592,0.4895551995117113,0.6324364825284381,0.570696819017778,0.6949662829507526,0.4653849088273442,0.4603494316014343,0.4942854962996872,0.6426129010285403,0.5769225529596076,0.7094884544649547,0.4641336690318151,0.4271305409323262,0.4960708018616007,0.6546011852053676,0.5744840269736394,0.7289013010012942,0.45612268253604943,0.48749523155565727,0.5029068436713207,0.6573257952455556,0.5676725018731694,0.7522375859955044,0.45343709468223087,0.5080796520943007,0.5056229495689326,0.6620802397656835,0.5586131734895443,0.7755330018391118,0.4575570305943389,0.4948653391317617,0.5064164187075608,0.6718070976091547,0.5538451059192153,0.7955043934336897,0.45732814526588844,0.5088120851453422,0.5062485694666972,0.6737960629384919,0.5497581908589333,0.8118520536748177,0.46291294728007937,0.5116807812619211,0.5056076905470359,0.6712485525509162,0.5439547714733329,0.8261426333356039,0.4757610437170977,0.49587243457694363,0.5024490730144198,0.674695184251754,0.5408214699271167,0.8328179279340645,0.48221560997940033,0.493141069657435,0.5018234531166552,0.6758667665690348,0.5378652680335126,0.8357605067774674,0.4920424200808728,0.49576562142366676,0.5000076295109483,0.674014031741707,0.5352632654451331,0.8382671480144405,0.4947280079346914,0.4860914015411612,0.4980849927519646,0.675158367958586,0.5331244465635856,0.8368775968939446,0.5007400625619898,0.49234760051880677,0.49626916914625774,0.6764253116272734,0.5332879231659968,0.833144881138887,0.5004959182116426,0.49994659342336156,0.49457541771572444,0.6736189632858797,0.5341189292282542,0.829521149785437,0.5017013809414816,0.487006942854963,0.4933852140077821,0.672869695524828,0.5354131189973435,0.8256249574279682,0.5003585870145724,0.49143205920500493,0.4919203479056992,0.6717526054083509,0.5371568694230638,0.8208705129078401,0.49573510337987337,0.49793240253299764,0.4938735027084764,0.6684013350589196,0.5395000340576255,0.8175737347592126,0.49237811856260016,0.49130998702983136,0.4948195620660716,0.0,left
0.5705333424153668,0.0,0.8596825829303181,0.06988632028686961,0.6635385671778439,0.554009308003357,0.5754716981132075,0.0075607928615216945,0.8981336421224713,0.18707560845349813,0.5160448615243763,0.5412832837415121,0.6049315441727403,0.03342188315963946,0.9236200985400632,0.32559700923170826,0.5151293202105744,0.5445181963836118,0.6114365506436891,0.05805122266875554,0.9371296233226619,0.4566262302586404,0.4976882581826505,0.5376516365300984,0.6231319392411961,0.07797833935018052,0.9381922212383352,0.5694514381628137,0.4818188754100862,0.5267109178301671,0.6368912199441455,0.10925686261153872,0.9438866562223283,0.6674601358052948,0.4844739452201114,0.5054398413061723,0.6414685648116613,0.13252503235474425,0.9226074518084598,0.7449149309529259,0.42200350957503624,0.4839703974975204,0.6371500578979633,0.13981336421224716,0.8825420611674955,0.8031128404669261,0.41213092240787363,0.48178835736629283,0.6368775968939445,0.13583543355357264,0.8345344322593828,0.8484779125658045,0.46718547341115435,0.4737773708705272,0.6269600163476602,0.12501873169402627,0.7879027314215653,0.8827801937895781,0.47521171892881664,0.45983062485694665,0.6228458551869763,0.11666780192085009,0.746393297459301,0.9035019455252918,0.5035782406347753,0.45943389028763254,0.6196580614399565,0.11785300728833184,0.7143110142360874,0.9106584267948424,0.4951705195696956,0.457450217441062,0.6102854029017097,0.12477351679040939,0.6895851781213813,0.9124437323567559,0.45519188220035095,0.4546272983901732,0.6053947278795722,0.14116204618214015,0.669218718070976,0.9036697947661555,0.467704280155642,0.44408331425955594,0.599318847489953,0.17140521762822694,0.6548872692595872,0.8764934767681392,0.44806591897459375,0.4429083695735103,0.5947006334718343,0.2126966827872761,0.6427491315305497,0.8473945220111391,0.424277103837644,0.4462043183031968,0.5960901845923303,0.2675567059464614,0.6333083577412983,0.7770046540016785,0.4092317082475013,0.4384069581139849,0.5971527825080035,0.3276479803828077,0.6298753490906615,0.7063553826199741,0.39412527656977187,0.4395208667124437,0.6014712894217016,0.3852189905319801,0.6320550371228119,0.6519111924925612,0.382406347753109,0.45174334325169757,0.6138001498535522,0.43712281179756146,0.6400381445405626,0.6029449912260624,0.4742198825055314,0.46297398336766615,0.6180369184660445,0.4792725291192698,0.6577617328519856,0.5800259403372244,0.4639963378347448,0.4679331654840925,0.6301478100946802,0.5044070567400041,0.6784823922076152,0.5447470817120622,0.45139238574807355,0.4788738841840238,0.6411824807574417,0.5211089162863565,0.7007833253865541,0.5241168841077287,0.48805981536583504,0.49498741130693524,0.6461276479803828,0.5335467611198147,0.7248961242422178,0.5115434500648508,0.47104600595101853,0.5020981155107958,0.6504734009944827,0.5394864110074246,0.7438594101219264,0.5040207522697795,0.46929121843289845,0.501182574196994,0.6630338532797493,0.5412982766841496,0.7591172263469791,0.49182879377431904,0.48584725719081406,0.5108720531013962,0.6680607588038961,0.5404400245214903,0.7703698658129555,0.4908369573510338,0.51113145647364,0.5099717708094911,0.6721612969143791,0.5375246917784892,0.7820311967849601,0.48386358434424354,0.5002059967956054,0.5055466544594491,0.6776650091955588,0.5335876302704176,0.7889653293372385,0.4780804150453956,0.49457541771572444,0.5103074692912184,0.6788638376132415,0.5259995913084939,0.7965397452489612,0.4823682001983673,0.4794995040817884,0.5071030746929122,0.683999727538996,0.5215312308425857,0.8018391117771269,0.49129472800793467,0.5188525215533685,0.506309605554284,0.6822014849124719,0.5161228799128125,0.8106123561065323,0.49132524605172806,0.5096055542839704,0.5042648966201266,0.6832640828281452,0.5133165315714189,0.8146992711668143,0.4976272220950637,0.4864881361104753,0.5024795910582132,0.6848171105510523,0.5117362577481098,0.8193719773857367,0.49571984435797667,0.5011367971313039,0.496406500343328,0.6845991417478373,0.5140930454328724,0.8227913629861726,0.4935072861829557,0.51113145647364,0.49364461738002596,0.6773108098903344,0.5135481234248348,0.8259519106327906,0.49092851148241395,0.49536888685435265,0.49144731822690163,0.6777739935971664,0.5172127239288876,0.8249165588175192,0.491981383993286,0.4919661249713893,0.4899061570153353,0.6741366391935154,0.5194060350112389,0.8239629453034535,0.48760204470893415,0.48345159075303273,0.4942549782558938,0.6700905932838362,0.5192016892582249,0.8221919487773313,0.4891126878767071,0.46878767071030747,0.49877164873731594,0.6702676929364485,0.5192698045092295,0.8189224167291057,0.4984359502555886,0.48964675364309146,0.5009384298466468,0.0,left
0.6174186638104164,0.12866514928370598,0.9396170839469808,0.5335774776836805,0.49959563591973755,0.5101091020065613,0.6168161735172044,0.12990360155308608,0.9043044584281698,0.6533150225070573,0.5236896314946212,0.49060807202258333,0.6056812603204356,0.12846431918596868,0.8678761101441513,0.7410543984130618,0.48427557793545434,0.4903334096284428,0.601302048466997,0.122707189717499,0.8318047931449993,0.8084382391088731,0.4481727321278706,0.49364461738002596,0.5986477440085688,0.11752577319587632,0.8021287990360155,0.8538338292515449,0.4405737392233158,0.4827954528114748,0.5949390815370197,0.10844825277814968,0.7430579729548801,0.8921950102998398,0.4579232471198596,0.47968261234454873,0.5907885928504486,0.09654572231891818,0.6920872941491498,0.9117570763714046,0.49875638971541925,0.4865949492637522,0.5927835051546392,0.0866113268175124,0.6544517338331772,0.9320363164721142,0.4930342565041581,0.49187457084000913,0.5942428705315302,0.08428169768375954,0.6289730887669033,0.945662623025864,0.4895399404898146,0.4898756389715419,0.5954746284643192,0.09081537019681352,0.6116079796492168,0.9491874570840009,0.47835507743953615,0.48673228046082245,0.5954076850984068,0.10451198286249831,0.5999062792877226,0.947173266193637,0.4437323567559319,0.4666056305790799,0.5944570893024501,0.1345293881376356,0.5945775873610925,0.9434958419165331,0.4554512855725948,0.4728923476005188,0.5932253313696613,0.1726469406881778,0.5938412103360556,0.9192797741664759,0.4311589227130541,0.4798809796292058,0.5898915517472219,0.21456687642254652,0.595635292542509,0.8891889829861905,0.4096894789044022,0.4728618295567254,0.5910563663140983,0.2672914714151828,0.5984603025840138,0.8431067368581674,0.4178530556191348,0.4780804150453956,0.5899852724594993,0.32514392823671173,0.6072432721917258,0.7718318455786984,0.45265888456549935,0.48036926832990007,0.5917391886464051,0.3815637970277146,0.6161601285312626,0.7081406881818876,0.4686045624475471,0.4885481040665293,0.5943767572633551,0.43406078457624847,0.6295488017137502,0.6317387655451285,0.45354390783550774,0.498115510795758,0.6001740527513724,0.483772928102825,0.6444771723122239,0.5794308384832533,0.4325780117494469,0.496757457846952,0.6051546391752577,0.5162672379167225,0.6618155040835454,0.5306630045014115,0.45815213244831005,0.49240863660639356,0.6127861828892757,0.5375418396036953,0.679488552684429,0.5052262149996185,0.4736247806515602,0.4895094224460212,0.6206855000669433,0.5451867719908957,0.6998259472486277,0.4832227054245823,0.4919661249713893,0.49446860456244757,0.6268978444236176,0.5455884321863703,0.7179140447181684,0.46851300831616693,0.5277027542534524,0.49533836881055926,0.6290801981523632,0.5412505020752443,0.7399651894497256,0.4605020218204013,0.5110551613641565,0.5041580834668498,0.6305931182219842,0.5351318784308475,0.7618958361226403,0.4592813000686656,0.48839551384756236,0.5115587090867475,0.6318382648279556,0.5279421609318516,0.7828357209800508,0.4616159304188602,0.4922255283436332,0.5047531853208209,0.634047395903066,0.5211808809746954,0.8019279689382782,0.4632639047837034,0.5004806591897459,0.5036697947661555,0.6370732360423083,0.5150087026375686,0.8158923550676127,0.4707560845349813,0.4998092622262913,0.5017471580071717,0.6422948185834784,0.5079260945240326,0.8250100415048869,0.4750591287098497,0.49060807202258333,0.4975814450293736,0.6469005221582541,0.5022225197482929,0.8284643191859687,0.48714427405203325,0.4912031738765545,0.49546044098573283,0.6475297897978309,0.4987950194135761,0.8287320926496184,0.49283588921950106,0.5009842069123369,0.49214923323414966,0.6457624849377427,0.49824608381309415,0.8268978444236177,0.49489585717555507,0.487006942854963,0.48963149462119476,0.6445575043513188,0.49895568349176594,0.8245816039630472,0.4997634851606012,0.48253604943923095,0.4899824521248188,0.6417592716561789,0.5020752443432855,0.8193332440755121,0.49576562142366676,0.48961623559929807,0.49005874723430226,0.6367786852322935,0.5040299906279287,0.8167492301512921,0.49211871519035627,0.47142748149843594,0.48418402380407416,0.6368857946177533,0.507002276074441,0.8143660463248092,0.4881208514534218,0.5033951323720149,0.49010452429999235,0.6326415852189048,0.5063730084348641,0.8134422278752176,0.4985732814526589,0.5065995269703212,0.4907148851758602,0.6299236845628597,0.5061721783371268,0.8123711340206186,0.5056076905470359,0.46921492332341497,0.4993362325474937,0.6331905208193869,0.504940420404338,0.8120498058642388,0.5070572976272221,0.4878004119935912,0.5053635461966888,0.63514526710403,0.5055027446780024,0.8111259874146473,0.5073929961089494,0.5041428244449531,0.5050736247806515,0.0,left
0.6213683223992502,0.03447583344490561,0.87287454813228,0.2759136339360647,0.5936980239566644,0.5703364614328221,0.6406145400990761,0.06687642254652564,0.9016936671575847,0.3977111467154955,0.522743572137026,0.5621118486305028,0.6538358548667828,0.0845494711474093,0.9083322176105683,0.5190051117723354,0.531792172121767,0.5377126726176852,0.6574842683090105,0.0977540500736377,0.8979113669835319,0.6350041962310216,0.5169298847943847,0.4959182116426337,0.6525907082608113,0.10369527379836659,0.8792877225866916,0.7221789883268482,0.4811017013809415,0.47428091859311816,0.6553219975900388,0.12120765832106041,0.8493238720042844,0.793865873197528,0.45636682688639657,0.4664835584039063,0.6491230419065471,0.12383183826482796,0.7993841210336056,0.8380407415884642,0.4885328450446326,0.46926070038910506,0.6371267907350381,0.12156915249698755,0.7464988619627796,0.86323338673991,0.5264362554360266,0.4648203250171664,0.6229749631811488,0.11542375150622572,0.6992770116481456,0.8923018234531167,0.5350881208514534,0.462729839017319,0.6120498058642388,0.11191591913241399,0.6613201231757933,0.904600595101854,0.5079880979629205,0.4648203250171664,0.603815771857009,0.11664212076583208,0.6400321328156379,0.9127794308384832,0.4890363927672236,0.4664682993820096,0.5938278216628732,0.12656312759405544,0.6252644262953542,0.9133134966048676,0.4844586861982147,0.4765239948119325,0.5845360824742267,0.14305797295488018,0.6130004016601954,0.9129777981231403,0.43891050583657587,0.46338597695887696,0.5832373811755255,0.1729013254786451,0.60543580131209,0.898115510795758,0.45720607309071487,0.46677347981994355,0.5839871468737449,0.21044316508234037,0.6022626857678405,0.8675516899366751,0.4632028686961166,0.48168154421301596,0.5807738653099478,0.25639309144463784,0.6003882715222921,0.830060273136492,0.4197146562905318,0.48502327000839246,0.5847770785915115,0.3099879501941358,0.6018610255723658,0.7660944533455406,0.44328984512092773,0.49335469596398873,0.589155174722185,0.36801445976703706,0.6130941223724728,0.697306782635233,0.455741206988632,0.49535362783245596,0.5938010443165083,0.4193466327486946,0.6297630204846699,0.6349584191653315,0.47135118638895246,0.49211871519035627,0.5994108983799705,0.4662337662337663,0.6487481590574374,0.5686274509803921,0.4856336308842603,0.489066910811017,0.6069353327085285,0.49639844691391083,0.6715222921408489,0.531792172121767,0.4562600137331197,0.4878767071030747,0.6117954210737716,0.5141919935734369,0.6976168161735172,0.5074998092622263,0.4592355230029755,0.48596932936598763,0.6186504217432052,0.5182889275672781,0.7187976971482126,0.4955062180514229,0.48509956511787594,0.49752040894178684,0.6201767304860089,0.5144196010175391,0.7401794082206453,0.49446860456244757,0.49211871519035627,0.5045090409704738,0.6249163207926095,0.5075646003481055,0.7607176328825813,0.5010757610437171,0.48877698939497977,0.516365300984207,0.6305395635292542,0.5011380372205114,0.7764761012183693,0.507560845349813,0.49750514991989014,0.5180590524147403,0.6348641049671978,0.4980050876958093,0.7871334850716295,0.503440909437705,0.5080338750286106,0.5181811245899138,0.6367786852322935,0.4978845896371669,0.7979247556567144,0.5011520561532006,0.49709315632867934,0.5127641718165865,0.6421207658321061,0.49981255857544515,0.8028116213683224,0.4948653391317617,0.49100480659189744,0.506507972838941,0.6445976703708662,0.5001472754050074,0.805904404873477,0.488715953307393,0.49613183794918747,0.5003738460364691,0.6447449457758737,0.49989289061454006,0.808568750836792,0.48888380254825664,0.4822461280231937,0.4977798123140307,0.6443566742535815,0.49812558575445176,0.8098808408086758,0.4921950102998398,0.48674753948271915,0.49669642175936524,0.6472486276609988,0.49584951131342886,0.8093988485741063,0.4977187762264439,0.48552681773098344,0.49184405279621574,0.6473557370464588,0.49351988217967596,0.8086624715490695,0.49835965514610514,0.5073929961089494,0.4926222629129473,0.6449056098540635,0.49315838800374884,0.8091176864372741,0.4955367360952163,0.5026321812771801,0.49213397421225297,0.6430981389744277,0.4941357611460704,0.8086089168563395,0.4976882581826505,0.4856183718623636,0.48967727168688485,0.6429106975498727,0.4942696478778953,0.8093988485741063,0.49701686121919586,0.49787136644541086,0.48928053711757075,0.6380907752041772,0.4960771187575311,0.8101352255991431,0.49372091248950944,0.493842984664683,0.49185931181811243,0.6350783237381175,0.4970678805730352,0.8107243272191726,0.49663538567177845,0.48250553139543756,0.48969253070878155,0.6355737046458696,0.49716160128531267,0.8094791806132012,0.4965285725185016,0.49967193102922103,0.4923018234531167,0.0,left
0.7497656982193065,0.0,0.7677065202838399,0.0383764400701915,0.5273365377279317,0.599694819562066,0.7182019011915919,0.0,0.8198888740125854,0.16925307087815672,0.7090714885175861,0.6232089723048753,0.6941803900566786,0.012005176953630542,0.8661802115410363,0.3295338368810559,0.6143739986266881,0.5919127183947509,0.6932989690721649,0.03795688847235239,0.8872673718034543,0.46894026092927443,0.6008087281605249,0.5615777828641184,0.6845226938010442,0.05447851117954212,0.8964386129334583,0.5946440833142596,0.5120317387655451,0.5167315175097277,0.6674387468201902,0.08208595528183156,0.9143124916320793,0.7040665293354696,0.4708323796444648,0.49327840085450525,0.6556433257464185,0.10411032266702369,0.8928504485205516,0.7955291065842679,0.45569542992294193,0.4720836194399939,0.6532735305931182,0.11815504083545321,0.8438077386530994,0.8549477378500038,0.4561684596017395,0.4624399176012818,0.6396170839469809,0.10694872138171109,0.7887535145267104,0.8965438315403983,0.4839856565194171,0.46805523765926604,0.6321194269647878,0.09658588833846567,0.731463381978846,0.9349965667200733,0.49796292057679103,0.46129549095902955,0.6211541036283303,0.08353193198554025,0.6865309947784174,0.9557488364995804,0.5185473411154345,0.4561837186236362,0.6139509974561521,0.07918061320123176,0.6573972419333245,0.9754940108339055,0.5174792095826658,0.44881361104753187,0.6050073637702504,0.077814968536618,0.6360289195340741,0.9811093308918898,0.517067215991455,0.45510032806897077,0.5941491498192529,0.0981523631008167,0.6215557638238051,0.9692530708781567,0.4805676356145571,0.4545967803463798,0.5889811219708128,0.12893292274735574,0.612464854732896,0.959288929579614,0.5040054932478828,0.44930189974822615,0.5828357209800509,0.1709867452135493,0.6066675592448788,0.9309224078736553,0.5056382085908293,0.46511024643320364,0.5766233766233766,0.22391217030392288,0.6050876958093453,0.8847791256580453,0.49495689326314185,0.4784466315709163,0.5724193332440755,0.2881911902530459,0.6084348641049672,0.8261539635309376,0.4614938582436866,0.4864728770885786,0.5711206319453742,0.3537287454813228,0.6153701968134958,0.7546654459449149,0.4554665445944915,0.496910048065919,0.5731021555763823,0.41452671040299904,0.6215959298433525,0.6909437705043107,0.42580300602731364,0.5127336537727931,0.5760342750033471,0.4712946846967465,0.6346364975230955,0.6204013122758831,0.44243533989471273,0.5125658045319295,0.5875217565939215,0.5144196010175391,0.6517739991966797,0.567727168688487,0.4276340886549172,0.5142900740062561,0.6003213281563797,0.5470879635828089,0.6690052215825412,0.5365224689097429,0.4677653162432288,0.5047074082551308,0.6116615343419467,0.563341812826349,0.6914178604900254,0.4950637064164187,0.4780651560234989,0.5016708628976883,0.6182353728745482,0.5697549872807605,0.71894497255322,0.47673762111848633,0.47998779278248266,0.5000839246204318,0.6259070826081135,0.5675056901861025,0.742696478778953,0.46625467307545587,0.4955672541390097,0.5043259327077134,0.6293345829428304,0.5618155040835453,0.7617753380639979,0.4645151445792325,0.5051041428244449,0.5033646143282215,0.6283973758200563,0.554063462310885,0.7837327620832775,0.46678873884184025,0.5094529640650034,0.5036697947661555,0.6299906279287723,0.548132280091043,0.7968268844557505,0.4719462882429236,0.4914930952925917,0.506309605554284,0.6321060382916053,0.5436069085553621,0.8086624715490695,0.47089341573205157,0.49407186999313346,0.5049668116273747,0.6332039094925692,0.5380907752041773,0.8179943767572634,0.48345159075303273,0.5033035782406348,0.5008621347371633,0.6319319855402329,0.5360690855536216,0.8260677466863033,0.48752574959945066,0.5031052109559777,0.5010757610437171,0.6318248761547731,0.5336323470344089,0.8285714285714286,0.49614709697108417,0.492988479438468,0.50087739375906,0.6334582942830366,0.5320926496184228,0.830258401392422,0.5007858396276799,0.49965667200732433,0.5012436102845808,0.6307270049538091,0.5311956085151961,0.8285848172446111,0.5081406881818875,0.49062333104448,0.49871061264972916,0.629736243138305,0.5333645735707591,0.8249966528317043,0.5048905165178912,0.48966201266498816,0.4988479438467994,0.6295220243673851,0.536136028919534,0.8211808809746953,0.5010910200656138,0.5005722133211261,0.4988632028686961,0.6299236845628597,0.5381309412237247,0.8164948453608247,0.4993667505912871,0.4944380865186542,0.49454489967193105,0.6281028250100416,0.539456419868791,0.8143392689784442,0.49839017318989853,0.49291218432898454,0.49376668955519953,0.6266702369795154,0.5413977774802516,0.8129066809479181,0.49576562142366676,0.49404135194934007,0.4948653391317617,0.0,left
