AccX1,AccY1,AccZ1,GyrX1,GyrY1,GyrZ1,AccX2,AccY2,AccZ2,GyrX2,GyrY2,GyrZ2,AccX3,AccY3,AccZ3,GyrX3,GyrY3,GyrZ3,AccX4,AccY4,AccZ4,GyrX4,GyrY4,GyrZ4,AccX5,AccY5,AccZ5,GyrX5,GyrY5,GyrZ5,AccX6,AccY6,AccZ6,GyrX6,GyrY6,GyrZ6,AccX7,AccY7,AccZ7,GyrX7,GyrY7,GyrZ7,AccX8,AccY8,AccZ8,GyrX8,GyrY8,GyrZ8,AccX9,AccY9,AccZ9,GyrX9,GyrY9,GyrZ9,AccX10,AccY10,AccZ10,GyrX10,GyrY10,GyrZ10,AccX11,AccY11,AccZ11,GyrX11,GyrY11,GyrZ11,AccX12,AccY12,AccZ12,GyrX12,GyrY12,GyrZ12,AccX13,AccY13,AccZ13,GyrX13,GyrY13,GyrZ13,AccX14,AccY14,AccZ14,GyrX14,GyrY14,GyrZ14,AccX15,AccY15,AccZ15,GyrX15,GyrY15,GyrZ15,AccX16,AccY16,AccZ16,GyrX16,GyrY16,GyrZ16,AccX17,AccY17,AccZ17,GyrX17,GyrY17,GyrZ17,AccX18,AccY18,AccZ18,GyrX18,GyrY18,GyrZ18,AccX19,AccY19,AccZ19,GyrX19,GyrY19,GyrZ19,AccX20,AccY20,AccZ20,GyrX20,GyrY20,GyrZ20,AccX21,AccY21,AccZ21,GyrX21,GyrY21,GyrZ21,AccX22,AccY22,AccZ22,GyrX22,GyrY22,GyrZ22,AccX23,AccY23,AccZ23,GyrX23,GyrY23,GyrZ23,AccX24,AccY24,AccZ24,GyrX24,GyrY24,GyrZ24,AccX25,AccY25,AccZ25,GyrX25,GyrY25,GyrZ25,AccX26,AccY26,AccZ26,GyrX26,GyrY26,GyrZ26,AccX27,AccY27,AccZ27,GyrX27,GyrY27,GyrZ27,AccX28,AccY28,AccZ28,GyrX28,GyrY28,GyrZ28,AccX29,AccY29,AccZ29,GyrX29,GyrY29,GyrZ29,AccX30,AccY30,AccZ30,GyrX30,GyrY30,GyrZ30,Label
15,157,42,630,-418,1701,-7,77,31,278,-340,1415,-8,51,9,425,-229,1217,-14,10,-7,526,-110,1010,-12,-19,-13,433,-7,933,-16,-79,-25,336,147,408,-9,-105,-24,209,253,8,-11,-133,-7,-151,244,-502,-7,-102,10,-653,144,-816,-16,-50,23,-670,2,-1114,-20,-9,29,-771,-69,-987,-19,34,22,-689,-93,-954,-10,71,11,-509,-67,-726,-2,77,0,-162,-2,-461,18,68,0,-83,25,-126,23,64,-15,128,35,13,30,51,-12,94,-2,143,25,45,-13,287,-29,244,20,32,-8,238,-43,359,10,13,-11,257,-28,329,8,0,0,123,-21,442,0,-8,-1,276,-25,279,0,-14,-1,75,-19,292,1,-14,-2,136,-19,113,0,-13,-4,34,18,113,2,-6,-2,41,-3,-20,2,-2,-3,-23,5,44,1,0,-1,16,11,2,1,0,-1,14,10,-1,0,1,0,19,-3,1,up
-25,155,29,-39,-311,1480,-4,113,23,659,-239,1172,-18,33,4,567,-202,1105,-18,7,6,552,-119,926,-21,-23,0,544,-77,823,-16,-74,-8,470,30,324,-20,-99,-11,106,111,196,-11,-95,-3,-128,164,-113,-8,-93,3,-285,119,-528,-8,-74,6,-592,72,-683,-14,-44,12,-661,11,-792,-18,-25,13,-574,-13,-736,-14,5,15,-467,3,-846,-10,29,6,-504,67,-698,-1,51,5,-363,103,-494,11,59,3,-165,98,-366,22,61,0,-178,53,-232,25,71,-5,-31,-10,-77,26,61,-8,141,-57,6,25,53,-11,197,-66,112,21,39,-8,255,-67,241,17,32,-6,257,-40,280,10,13,-1,220,-37,339,4,6,0,158,-27,423,4,1,4,236,-36,249,2,-9,-2,91,-6,275,1,-13,-2,152,-20,209,2,-15,-6,71,-1,136,4,-9,-4,41,-11,9,2,-7,-4,-17,1,73,up
-2,160,43,840,-216,678,-14,67,29,513,-242,929,-17,52,19,375,-204,967,-15,15,12,449,-175,861,-16,-8,4,412,-117,639,-12,-57,-5,360,-85,563,-11,-72,-14,316,-27,320,-16,-100,-19,55,69,21,-14,-99,-12,-220,165,-222,-11,-98,-3,-382,163,-693,-20,-73,-6,-776,169,-859,-18,-33,13,-771,152,-768,-9,-2,18,-520,100,-844,-10,29,18,-484,56,-918,-7,61,15,-445,24,-505,0,67,20,-63,6,-402,8,59,4,-107,1,-187,11,65,1,24,-16,-46,17,53,-10,137,-33,120,19,48,-6,285,-23,19,21,35,-11,170,8,250,19,26,-5,322,11,134,21,8,-7,88,6,275,17,10,-2,155,-14,190,12,-1,-5,65,-2,285,10,2,-1,80,-37,101,7,0,-3,-19,-25,291,2,3,1,113,-29,150,1,-2,1,43,-31,167,3,-1,0,85,-52,109,up
-94,-127,-23,1976,-522,3294,-53,-117,-21,1007,-152,1464,-38,-124,-15,333,-23,871,-31,-98,2,108,25,479,-30,-105,6,96,-10,833,-22,-75,13,-489,83,-765,-25,-44,16,-583,59,-730,-21,-1,18,-360,42,-686,-19,7,4,-322,43,-799,-8,45,1,-355,86,-560,4,50,0,-209,109,-347,15,54,-2,-165,99,-264,18,48,-3,-198,64,-96,22,58,0,-25,18,-144,19,49,-5,-6,-3,-22,20,51,-3,102,-25,20,17,37,-4,166,-45,120,17,29,0,189,-42,80,15,18,-7,103,-32,218,16,19,1,135,-25,185,13,11,-4,93,-35,288,11,9,0,106,-42,242,5,0,-8,95,-37,250,5,-4,-1,119,-36,195,1,-10,-6,88,-41,191,1,-11,-3,70,-19,142,2,-8,-5,39,-9,65,2,-3,-1,55,-1,24,2,-3,-2,22,0,14,3,-2,-1,17,-1,9,up
-116,-113,3,1616,-462,3114,-67,-92,1,806,-103,1482,-50,-93,1,533,7,877,-40,-96,7,345,5,496,-36,-113,8,249,-42,717,-20,-75,3,-470,96,-696,-18,-37,12,-516,44,-740,-15,-9,6,-448,27,-624,-12,13,6,-504,63,-877,-3,64,4,-482,136,-500,5,54,7,-124,93,-291,14,46,-3,-100,90,-248,20,47,4,-144,49,-78,19,52,-4,12,6,-59,20,43,-4,35,-21,-22,22,43,-2,133,-4,41,17,28,-5,116,8,60,17,23,-5,155,8,77,22,22,0,60,0,155,17,18,-3,84,-31,163,16,15,-3,42,-65,277,13,10,-1,146,-80,212,7,2,-4,99,-73,276,4,-6,-5,154,-63,252,2,-10,-4,99,-29,204,1,-13,-5,95,-32,117,2,-9,-3,24,-26,83,1,-7,-2,11,-19,11,1,-4,-2,1,-15,15,0,-2,-1,6,-14,-2,up
-118,-108,4,1682,-473,2912,-63,-78,8,707,-129,1513,-49,-91,2,526,-46,890,-38,-102,13,297,-38,451,-38,-107,10,107,-53,609,-22,-66,8,-487,92,-621,-23,-40,13,-476,60,-707,-16,-5,11,-399,64,-703,-14,21,0,-435,103,-813,0,61,2,-380,138,-525,11,48,2,-134,81,-243,18,48,-6,-101,65,-313,21,45,-4,-204,25,-91,24,56,-6,-57,-23,-78,22,51,-2,96,-51,-33,19,42,-8,119,-45,63,19,35,-3,139,-52,145,16,25,-5,218,-33,176,16,16,-2,170,-19,228,12,6,-9,138,-21,268,13,7,-2,135,-14,306,6,-5,-5,153,-1,197,4,-5,-2,64,-15,262,1,-10,-2,75,-18,180,1,-9,-1,22,-7,126,0,-9,-1,51,-8,58,2,-5,-1,6,-9,35,1,-2,-1,15,-12,-3,0,-1,0,11,1,2,0,0,0,25,-2,-23,up
-108,-112,18,1965,-317,3199,-54,-102,4,1101,-130,1406,-43,-101,1,616,-75,735,-40,-100,5,225,-29,355,-39,-94,10,96,-17,716,-25,-63,7,-518,71,-751,-27,-30,10,-646,87,-768,-19,3,10,-597,117,-605,-7,31,8,-462,121,-741,4,57,3,-380,110,-413,16,61,2,-94,69,-258,20,54,0,-11,30,-101,21,50,1,-14,-23,-10,15,37,-4,80,-47,56,17,34,-2,189,-36,-21,13,17,-5,88,-19,110,18,20,-1,88,-22,109,14,9,-4,237,-23,69,17,11,-3,70,-17,22,17,8,-5,-50,-29,151,17,12,-5,6,-13,160,11,6,-7,66,-23,106,11,5,-6,-62,-21,255,7,7,-3,107,-32,191,1,-3,-4,147,-25,172,1,-4,-1,136,-43,132,0,-10,-4,75,-23,126,0,-10,-2,60,0,40,0,-9,-2,11,5,7,1,-4,0,-15,5,-22,up
-112,-106,19,2207,-741,3372,-63,-108,-3,1177,-297,1518,-51,-114,0,714,-129,737,-47,-137,1,138,-31,222,-42,-99,4,-98,41,602,-23,-47,6,-701,198,-815,-21,-10,12,-739,169,-801,-12,20,11,-706,148,-717,0,73,12,-395,106,-753,10,73,7,-193,44,-284,17,55,3,11,14,-157,19,47,-3,61,2,-50,23,50,0,60,-39,19,18,41,-4,198,-53,64,13,28,-7,120,-53,120,15,19,-6,197,-30,140,15,11,-4,103,-9,211,13,4,-6,126,-2,108,13,4,-6,46,1,224,13,2,-2,136,-23,105,10,2,-4,46,-40,179,8,0,-3,104,-52,154,4,-2,-3,94,-31,133,3,-6,-2,62,-26,127,3,-3,-2,41,-12,66,0,-6,-2,9,2,89,2,-3,0,6,7,47,1,-3,0,0,1,4,0,-2,0,-14,-7,20,0,0,0,-1,-6,5,up
-100,-114,32,2382,-644,2935,-66,-99,11,606,-231,1629,-42,-91,12,384,-79,923,-36,-92,11,207,-15,482,-33,-94,11,18,1,649,-17,-64,6,-538,137,-573,-15,-34,9,-407,102,-843,-16,-6,6,-382,74,-821,-10,19,5,-408,54,-758,0,56,4,-285,43,-713,7,58,-3,-245,34,-308,18,63,-5,-179,18,-179,21,59,-5,-96,-25,0,18,50,-11,91,-34,3,20,39,-9,100,-17,40,15,30,-8,211,-10,180,15,18,-3,269,-12,135,15,10,-6,185,14,130,17,14,0,141,6,222,11,4,-6,119,-11,217,13,5,0,90,-11,226,6,-3,-4,56,-4,247,5,-6,0,66,-11,167,3,-10,-2,2,-12,209,2,-6,0,50,-11,64,2,-7,-1,2,-17,74,2,-3,-1,20,-12,22,0,-4,-3,-1,7,17,0,0,0,3,11,-14,0,-1,-1,-12,7,-10,up
-102,-110,47,2026,-889,2724,-62,-88,15,928,-396,1318,-53,-83,5,298,-177,908,-41,-80,6,216,-51,549,-34,-90,8,153,-24,750,-17,-75,-2,-465,182,-662,-15,-42,6,-579,177,-629,-9,-12,11,-375,137,-722,-9,8,8,-409,101,-784,-1,48,7,-412,99,-710,5,66,6,-193,68,-379,12,59,0,-48,41,-216,19,55,-4,-63,17,-23,24,52,-2,66,-22,33,20,41,-5,121,-39,59,17,31,-8,121,-25,125,17,23,-4,190,-27,176,14,12,-3,208,-13,103,10,10,-4,116,-25,176,11,9,-3,80,-41,210,12,7,0,113,-44,160,7,-1,-5,68,-28,198,5,-3,-2,62,-32,196,5,-5,-3,62,-12,154,2,-6,-3,65,1,91,2,-6,-2,22,-11,87,2,-3,0,3,-11,32,1,-2,-1,-8,-12,24,2,0,0,4,-8,10,0,-1,0,5,-1,25,up
-103,-136,6,1736,-451,3510,-56,-128,-3,970,-114,1504,-46,-122,-1,463,10,767,-37,-126,6,78,3,251,-35,-88,6,-87,14,684,-18,-46,10,-545,99,-903,-18,-11,11,-566,57,-814,-11,18,13,-472,43,-788,-7,54,5,-298,96,-821,6,53,3,-178,103,-381,16,53,0,-80,92,-252,25,51,0,-101,77,-130,25,53,-5,-86,4,-17,28,48,-5,-55,-60,32,25,49,-6,74,-87,131,20,31,-9,166,-86,201,16,25,-11,146,-56,268,15,13,-7,254,-41,292,10,11,-5,257,-31,319,3,-7,-5,187,-35,309,2,-5,-3,127,-17,288,0,-14,0,159,-39,157,-1,-13,-2,37,-20,199,0,-16,-2,38,-11,41,0,-7,-1,3,11,-7,0,-5,-1,-20,-2,-33,0,0,0,-27,5,3,0,2,1,-13,10,-42,0,3,1,-6,1,-32,0,1,0,-9,-2,13,up
-113,-119,21,2285,-287,2952,-61,-107,5,1112,-155,1402,-45,-98,2,550,-77,824,-39,-115,11,231,-56,371,-36,-103,7,78,-10,559,-19,-57,5,-666,79,-740,-20,-23,12,-638,87,-705,-17,2,11,-505,98,-655,-9,43,5,-434,111,-867,0,67,7,-315,70,-341,11,55,3,11,35,-248,16,45,-4,-1,36,-135,22,45,-2,-4,-6,-26,20,42,-4,99,-20,-1,18,30,-8,93,-19,20,18,28,-3,67,-13,81,17,20,-8,26,-28,156,18,19,-4,76,-37,118,16,14,-8,40,-44,222,14,18,-4,126,-54,196,9,7,-8,109,-48,297,7,6,1,188,-35,214,1,-7,-4,130,-11,233,0,-8,-1,124,-5,176,-1,-15,-2,29,19,113,0,-11,-1,26,11,30,0,-5,-1,-20,2,9,0,0,0,-19,4,-2,0,1,1,-10,4,-27,0,2,1,-4,-8,-31,up
-93,-138,15,2306,-375,2946,-55,-119,3,787,-200,1364,-46,-106,6,299,-78,699,-40,-99,11,207,-40,217,-40,-85,8,-11,-3,572,-23,-46,7,-574,102,-741,-19,-13,9,-452,138,-767,-10,15,7,-364,132,-824,0,44,1,-370,126,-644,16,70,3,-208,93,-386,23,67,0,-33,34,-164,21,55,-2,-76,-7,83,21,45,0,122,-51,114,13,25,-7,38,-26,214,12,15,-2,133,-32,102,10,7,-6,111,13,297,12,6,0,139,22,48,10,2,-4,-5,26,158,13,7,1,55,-20,66,9,1,-5,20,-24,58,7,1,-2,-58,-62,172,6,6,-5,28,-68,65,5,7,-4,51,-54,133,5,5,-4,114,-45,49,2,-1,-3,63,-31,157,2,-3,-1,103,-10,38,2,-8,-2,39,-3,74,2,-6,-3,16,-8,0,0,-2,-1,-7,0,38,0,-1,0,4,5,-21,up
-102,-125,23,2034,-638,2788,-65,-95,0,530,-194,1386,-45,-82,6,530,-65,682,-40,-81,2,386,-41,313,-36,-80,4,104,-5,638,-18,-55,6,-439,146,-523,-15,-32,10,-377,124,-751,-12,-8,9,-565,108,-671,-3,16,10,-643,114,-548,6,44,8,-528,53,-470,12,63,2,-206,0,-309,16,54,-3,-26,-28,-176,17,49,-8,-45,-71,-40,17,47,-7,205,-81,72,14,33,-11,222,-45,-18,13,22,-10,185,-21,98,15,18,-6,108,-11,234,14,9,-5,213,16,22,14,5,-6,72,17,200,13,4,-3,120,10,52,12,-1,-5,-20,8,139,12,3,-4,45,-2,112,11,4,-3,25,-8,54,9,4,-2,33,-21,154,6,3,-1,60,-21,134,5,0,-2,75,-16,105,3,-3,-1,45,-11,97,0,-4,0,64,-12,102,-1,-7,-1,22,-2,73,0,-5,0,15,0,12,up
-121,-103,40,2010,-545,2780,-68,-92,24,980,-280,1322,-52,-92,10,580,-139,762,-45,-109,9,103,-83,420,-39,-86,13,-123,-7,689,-19,-52,7,-392,127,-644,-21,-20,7,-479,114,-615,-17,0,13,-369,87,-519,-12,28,10,-163,93,-527,-5,34,5,-16,67,-573,2,26,3,-169,61,-122,9,15,-2,-133,98,-189,17,24,-2,-195,92,-181,20,36,-2,-129,61,-147,20,39,-3,-50,11,-158,20,38,-6,-85,-19,-5,23,45,0,12,-63,3,17,36,-6,64,-59,113,15,26,-6,139,-44,83,15,15,-7,63,-23,221,14,10,-4,217,-23,110,11,-1,-9,89,4,175,13,1,-2,129,-19,66,13,1,-5,2,-17,212,9,3,-3,106,-30,30,7,0,-4,-6,-33,216,5,1,-1,117,-36,60,3,-3,-4,17,-16,142,1,-4,-2,72,-21,73,1,-5,-2,27,-16,73,up
-129,-102,28,2155,-376,2678,-74,-82,7,1073,-237,1205,-60,-81,9,399,-125,766,-49,-72,9,253,-64,454,-43,-77,9,131,-40,770,-21,-62,4,-451,67,-582,-18,-39,8,-537,121,-557,-12,-13,7,-388,119,-602,-9,1,4,-392,117,-620,0,32,6,-342,114,-558,6,44,3,-190,81,-393,14,45,4,-104,45,-254,16,43,-2,-67,17,-135,23,44,0,-62,-15,-46,19,36,-11,-19,-28,-24,23,34,-7,-31,-38,23,18,29,-12,29,-39,74,20,23,-7,120,-31,113,16,19,-9,142,-26,92,17,19,-3,164,-35,155,11,17,-4,180,-33,223,8,7,-2,167,-29,233,4,0,-2,94,-21,251,1,-5,-1,129,-18,204,1,-11,-2,72,-6,211,1,-14,-2,70,2,115,3,-12,-2,14,1,38,2,-7,0,-6,-6,-11,2,-2,-1,-35,-8,-4,1,1,0,-22,-5,-7,up
-110,-108,21,1907,-407,2996,-59,-87,13,874,-164,1419,-48,-84,7,540,-80,813,-42,-91,8,301,-34,443,-36,-90,11,137,-20,727,-19,-63,6,-444,87,-665,-19,-32,7,-521,87,-710,-14,-4,9,-456,78,-639,-8,20,6,-451,82,-694,-2,50,1,-352,93,-562,8,51,4,-134,83,-264,13,42,-4,-60,90,-242,20,34,-4,-84,73,-99,26,43,-4,-90,35,-76,23,35,-7,35,-2,-88,26,34,-4,63,-16,15,27,32,2,104,-66,-3,25,32,-6,101,-91,154,24,26,-5,216,-80,188,20,18,-3,168,-67,282,10,10,-5,123,-72,369,5,-3,-7,158,-50,315,0,-12,-2,137,-15,331,-5,-19,-3,113,-13,216,-1,-16,-2,24,-2,161,0,-13,-3,11,2,29,0,-5,-1,-21,4,-19,0,-1,0,-10,1,-23,0,1,0,-32,3,-28,0,2,1,-8,-5,-16,up
-113,-130,17,2391,-720,2608,-76,-105,-4,837,-297,1247,-55,-88,3,355,-112,699,-49,-86,9,258,-35,319,-44,-87,10,47,-11,609,-26,-52,9,-566,146,-557,-19,-24,13,-494,154,-596,-14,-2,10,-389,136,-637,-4,18,4,-422,133,-578,6,47,2,-306,124,-473,14,46,0,-181,115,-293,20,47,1,-75,60,-204,21,40,-3,-145,8,-73,22,45,-2,-43,-49,-53,19,37,-6,126,-81,0,19,34,-6,107,-80,10,17,21,-12,115,-60,173,20,29,-3,254,-60,117,15,16,-8,212,-48,184,12,10,-4,109,-13,263,8,0,-5,154,-11,229,6,0,0,135,-11,201,0,-14,-4,68,7,235,2,-11,-1,43,13,122,3,-8,-2,23,-10,63,3,-2,0,2,-24,31,2,-2,-1,-21,-19,18,2,0,-1,4,-18,12,0,0,-1,6,-14,-2,0,0,-1,4,-10,11,up
-91,-134,5,2299,-536,2836,-56,-105,1,1040,-221,1303,-47,-102,-2,558,-67,665,-42,-105,6,212,4,285,-39,-99,9,1,27,573,-25,-50,11,-645,127,-676,-22,-19,14,-665,113,-707,-15,9,15,-582,85,-567,-6,39,9,-425,65,-648,2,62,3,-196,45,-408,12,47,2,-70,78,-196,16,39,-5,2,67,-131,22,41,-2,-3,35,-58,21,41,-6,58,1,-87,20,31,-9,-24,-20,62,22,36,-4,163,-69,20,22,22,-7,106,-49,114,18,21,-7,146,-46,93,18,13,-6,126,-44,231,18,19,0,178,-46,137,9,4,-9,70,-27,303,5,4,0,152,-43,245,1,-8,-3,117,-29,233,0,-10,-1,86,-17,173,-3,-15,-3,47,8,138,0,-12,0,19,-3,43,0,-7,-1,-16,0,-9,0,-1,0,-15,0,-28,0,1,0,-22,2,-30,0,2,0,-10,-6,-17,up
-100,-124,20,2258,-650,2758,-64,-116,5,1000,-308,1277,-52,-113,4,518,-108,660,-48,-116,5,40,-22,289,-39,-84,14,-60,-5,584,-24,-46,8,-594,127,-595,-17,-13,12,-558,131,-641,-11,12,10,-424,100,-573,0,43,9,-203,93,-639,3,45,0,-143,96,-326,10,40,2,-41,92,-176,14,36,1,-65,77,-147,16,36,0,-39,48,-73,16,32,-3,-83,-7,24,18,32,-3,2,-44,-31,18,23,-6,7,-48,80,18,24,-8,62,-56,-46,18,20,-8,62,-60,138,19,23,-6,150,-49,29,16,17,-8,145,-42,145,13,15,-6,113,-32,213,9,5,-5,149,-15,189,7,1,-3,82,-10,208,4,-5,-2,112,-5,191,0,-10,-1,52,-1,206,2,-8,-1,69,-9,61,1,-6,-2,21,-7,72,1,-4,-1,12,-11,23,0,-3,-1,-10,-14,19,0,-1,0,6,-6,-9,up
-90,-144,-1,2441,-756,2725,-61,-113,-4,991,-266,1180,-52,-98,-4,497,-71,601,-45,-88,2,139,15,308,-38,-78,10,83,20,652,-25,-51,14,-567,165,-609,-22,-21,14,-573,124,-639,-13,4,17,-466,95,-499,-3,20,10,-328,68,-590,3,39,1,-336,74,-405,12,47,-3,-302,68,-185,20,48,-1,-7,49,-230,21,37,-5,-70,10,-99,20,38,-7,-35,-37,-110,23,43,-2,85,-67,46,19,32,-6,322,-50,-131,20,26,-8,95,-40,109,16,20,-8,118,-29,161,17,22,-1,223,-13,150,10,5,-8,106,-5,242,11,8,-1,47,-8,256,5,-4,-1,84,-8,311,5,-1,2,130,-23,140,1,-10,-1,27,-21,209,0,-9,0,56,-19,92,0,-8,-2,-1,-17,48,0,-4,-2,3,-12,14,0,-2,-2,-11,-7,10,0,-1,-1,4,-10,-20,0,0,0,6,-6,7,up
-99,-122,18,1988,-856,2585,-55,-74,19,720,-391,1265,-47,-75,8,512,-219,721,-46,-73,2,191,-109,483,-38,-69,7,133,-19,775,-20,-61,6,-328,185,-401,-19,-50,2,-392,194,-616,-13,-20,7,-469,181,-523,-3,2,13,-311,166,-582,0,20,7,-325,126,-604,4,44,5,-310,99,-399,12,47,4,-120,79,-290,16,43,0,-122,56,-170,20,44,-2,-35,-2,-127,22,42,-1,-38,-49,19,20,41,-5,106,-61,-3,16,30,-5,65,-58,88,16,19,-6,139,-36,40,16,18,-4,71,-23,112,14,13,-7,104,-32,172,15,12,-2,38,-59,199,13,12,-5,118,-69,208,6,7,-2,120,-67,217,1,-3,-8,133,-57,230,0,-6,-4,114,-21,208,-1,-13,-5,94,13,100,0,-10,-4,40,21,67,1,-6,-3,14,8,1,1,-2,0,-14,6,0,1,0,0,-5,2,-22,up
-109,-121,18,2042,-657,2726,-63,-94,8,868,-279,1295,-48,-83,2,512,-137,760,-43,-82,4,289,-47,449,-34,-87,9,145,-38,720,-18,-59,3,-436,113,-551,-18,-31,6,-465,119,-586,-16,-11,10,-356,100,-528,-10,5,9,-339,85,-596,-6,36,3,-303,108,-520,2,35,6,-182,105,-208,9,29,2,-108,78,-268,16,30,0,-245,55,-131,18,39,-2,-126,17,-155,18,38,-6,-84,-31,-77,21,46,-5,19,-53,-82,18,33,-14,27,-44,23,18,34,-7,203,-41,-47,20,31,-9,110,-21,134,18,22,-6,181,-13,115,15,16,-7,126,-20,273,14,16,2,180,-41,186,8,4,-4,95,-21,303,4,-6,-1,150,-24,214,3,-8,-1,88,-10,230,0,-13,-2,88,-10,154,1,-9,-2,40,2,62,1,-6,-1,20,-10,22,1,-3,0,-5,-9,22,0,-1,0,0,-15,5,up
-109,-113,24,2197,-493,3050,-56,-106,5,1259,-260,1411,-44,-115,-7,608,-132,833,-32,-122,6,277,-41,279,-32,-101,4,17,17,551,-15,-51,5,-767,117,-748,-19,-21,10,-698,112,-629,-15,10,17,-611,121,-743,-13,48,8,-560,111,-792,0,61,9,-296,78,-195,6,36,-1,-30,89,-323,19,43,-2,-103,72,-169,24,44,-7,-116,17,-42,25,42,-13,27,-42,-164,25,44,-7,130,-99,-48,29,50,-10,154,-103,-6,21,43,-11,254,-81,230,16,34,-5,287,-63,341,12,21,4,322,-32,290,4,1,-3,190,13,456,0,-11,2,245,0,324,-1,-26,1,52,1,358,0,-23,0,72,8,134,0,-18,-3,-28,-1,54,0,-9,-1,-51,-3,-16,-1,-3,0,-74,0,-18,0,2,1,-28,5,-55,-1,4,1,-20,0,-23,0,3,1,6,0,-33,0,2,0,-7,-4,-13,up
-95,-135,19,1974,-598,2917,-53,-105,1,1235,-231,1259,-41,-115,-1,673,-115,679,-36,-115,4,193,-22,259,-33,-96,6,20,13,549,-18,-48,5,-629,151,-770,-17,-19,11,-711,120,-682,-11,15,13,-659,127,-607,-4,46,5,-484,118,-787,8,68,5,-329,98,-277,15,59,2,-18,70,-211,19,50,-5,-5,50,-55,23,54,0,75,25,21,18,39,-2,223,-20,17,16,30,-3,155,-50,106,14,20,-6,127,-64,200,12,16,0,172,-75,211,8,6,-8,138,-98,191,11,8,-2,65,-81,245,6,0,-6,150,-56,205,6,-2,-3,130,-31,169,4,-5,-2,48,-5,154,2,-6,-2,39,20,108,2,-2,-1,47,7,31,1,-3,0,11,-2,41,0,-4,0,-3,-13,25,1,0,-1,6,0,13,0,0,-1,16,-6,3,0,0,0,9,-12,19,-1,0,0,7,-1,-22,up
-92,-123,26,2184,-688,2353,-50,-92,6,805,-363,1196,-39,-84,4,499,-193,703,-35,-90,2,333,-96,356,-32,-93,4,65,-35,541,-16,-60,0,-544,151,-525,-16,-33,4,-529,187,-610,-11,-7,5,-529,178,-632,-5,20,7,-561,156,-606,2,53,4,-369,122,-524,10,55,4,-177,79,-285,15,49,0,-19,46,-216,19,48,0,-107,7,-45,19,51,-3,84,-45,17,18,39,-3,200,-67,19,17,34,-6,153,-71,78,15,24,-3,133,-62,245,12,15,-8,273,-46,160,13,10,-2,122,-2,172,9,4,-5,80,-4,251,8,2,0,83,-9,182,6,0,-3,88,-14,171,3,-2,0,52,-14,185,2,-7,-3,85,-27,91,2,-4,-1,16,-14,99,1,-6,-2,50,-14,24,1,-4,-1,-3,-13,34,1,-3,-1,-4,-4,-5,0,-1,0,-4,-11,12,0,0,0,-19,-2,-12,up
-96,-125,23,2061,-545,2669,-56,-99,3,1028,-235,1207,-41,-98,1,528,-104,664,-35,-88,4,311,-22,305,-33,-95,1,110,12,593,-16,-59,1,-505,144,-657,-17,-30,5,-611,149,-663,-11,1,11,-508,134,-632,-8,17,7,-517,121,-655,6,57,11,-392,101,-456,13,57,5,-183,73,-271,22,59,3,-46,34,-158,19,49,-3,0,-9,-13,21,48,-5,69,-52,43,16,37,-2,176,-77,43,12,28,-7,152,-67,165,12,12,-4,145,-56,153,15,18,-4,108,-44,205,14,16,-1,146,-50,172,8,7,-7,100,-35,239,8,2,-2,125,-33,192,5,-1,-4,130,-23,149,2,-10,-4,98,-11,189,0,-12,-3,68,9,98,0,-7,-2,26,10,56,0,-3,-1,14,5,0,0,0,1,-5,0,29,0,0,2,3,-2,15,1,0,1,-1,-8,-18,1,0,0,9,-11,-12,up
-93,-140,7,2125,-743,2428,-59,-103,0,914,-289,1089,-45,-92,2,376,-98,666,-39,-84,7,179,-8,363,-32,-85,10,82,1,625,-17,-52,9,-503,143,-575,-15,-30,9,-508,137,-562,-8,-6,7,-424,125,-593,-1,14,2,-418,106,-665,4,45,-1,-409,115,-490,16,57,1,-234,114,-352,20,58,-1,-174,71,-153,20,60,2,-103,-16,-22,18,54,0,124,-66,99,15,38,-2,166,-82,70,9,23,-5,201,-78,197,11,13,-5,200,-56,197,10,2,-7,208,-20,67,12,1,-8,15,0,151,13,10,-3,84,-28,100,11,8,-7,29,-34,154,8,9,-2,91,-46,127,4,4,-4,74,-31,192,2,1,-1,130,-36,135,0,-8,-4,74,7,154,0,-8,-1,77,16,74,0,-9,-2,5,14,47,1,-5,-1,-1,3,11,1,-2,0,-10,6,-1,0,0,0,-13,-17,-19,up
-103,-121,7,1713,-412,2857,-53,-98,-2,798,-124,1337,-42,-92,2,527,-4,737,-36,-106,7,378,25,237,-31,-99,9,-2,15,561,-16,-48,9,-582,98,-663,-17,-19,16,-500,66,-602,-13,3,11,-459,48,-732,-7,37,6,-545,52,-601,-1,63,3,-267,59,-267,9,43,1,-19,63,-201,14,36,-3,-66,47,-150,18,39,-3,-56,-11,-55,17,42,-4,74,-45,-26,15,34,-8,91,-59,42,15,32,-5,201,-57,64,12,21,-9,153,-28,114,13,18,-4,138,-1,157,12,10,-3,113,2,266,12,5,0,144,0,131,8,0,-3,36,-14,216,8,3,1,81,-27,143,3,-4,-3,56,-28,173,2,-4,-2,56,-20,72,1,-4,-2,32,-8,94,1,-4,-1,24,-4,34,0,-2,0,9,-6,26,1,-1,-1,0,-3,-2,1,0,0,-3,-11,-2,0,0,-1,-1,-1,8,up
-83,-146,-5,2169,-385,3094,-47,-121,-9,971,-112,1385,-35,-122,0,459,-8,667,-28,-116,10,276,12,92,-30,-86,6,-49,11,543,-20,-33,9,-662,89,-708,-19,-3,16,-472,56,-615,-18,19,11,-430,34,-739,-11,46,5,-377,49,-514,-3,44,6,-133,53,-119,6,28,4,7,54,-180,12,27,-1,-149,45,-26,14,34,-2,-23,22,-108,14,34,-5,-54,-19,-16,18,39,-4,11,-29,5,16,31,-10,112,-27,51,17,27,-5,68,-6,73,18,22,-6,141,0,139,14,18,-4,121,0,146,11,9,-6,135,-5,144,11,7,-1,79,-5,240,5,0,-4,149,-22,91,4,0,0,18,-23,201,3,-4,0,93,-26,125,1,-5,0,36,-25,116,3,-3,0,35,-34,57,2,-4,-1,15,-28,50,3,-2,-1,15,-32,12,2,-2,-2,-7,-13,-6,2,0,-1,-4,-7,11,up
-97,-134,4,2139,-562,2080,-57,-84,11,526,-242,1204,-42,-77,13,550,-125,698,-35,-87,12,378,-83,397,-32,-95,8,100,-52,469,-14,-58,7,-453,112,-397,-13,-36,2,-423,144,-629,-9,-10,2,-498,149,-590,-6,17,0,-538,149,-580,2,54,5,-313,122,-602,6,52,3,-176,78,-229,13,50,1,-39,33,-188,16,44,-1,-14,1,-11,17,44,-6,-21,-15,39,18,38,-4,112,-7,46,16,26,-8,75,-8,163,15,17,-5,99,2,61,14,15,-6,69,0,206,14,11,0,195,-14,51,10,6,-6,31,-33,157,10,13,1,74,-64,143,7,9,0,150,-90,143,4,0,-2,93,-86,166,2,-3,-3,75,-53,157,1,-4,-3,76,-20,85,2,-6,-5,67,-2,69,1,-7,-3,0,14,70,1,-2,-1,30,8,7,1,-2,-1,-3,7,-2,2,0,0,-4,-3,-16,up
-93,-146,-6,2229,-665,2881,-57,-112,-7,792,-163,1350,-41,-106,0,440,-23,702,-33,-102,6,276,2,253,-30,-97,7,-2,-9,600,-16,-48,11,-588,127,-677,-16,-21,12,-503,74,-696,-12,8,9,-504,42,-720,-7,34,5,-485,44,-573,-1,60,2,-288,79,-435,9,55,0,-121,66,-210,15,49,-2,-61,50,-98,20,50,-3,4,19,-37,21,45,-6,62,-11,37,19,37,-9,151,-33,43,18,25,-9,108,-16,133,16,25,-7,197,-21,142,13,15,-5,148,-28,245,8,13,-4,189,-22,213,7,5,0,150,-18,263,4,0,0,185,-34,168,4,-7,0,71,-37,239,1,-11,-1,104,-11,135,5,-11,-2,19,-3,65,3,-7,-1,-2,-8,32,2,-4,-2,-35,-2,9,1,0,-1,-17,11,-3,1,2,0,-16,-10,-4,0,1,1,-6,-14,6,0,2,1,1,-14,-11,up
-100,-112,39,2196,-491,2194,-59,-86,8,1021,-246,1032,-45,-73,9,537,-137,652,-39,-67,5,295,-70,464,-30,-67,8,201,-44,739,-13,-68,-1,-458,70,-327,-11,-43,4,-544,104,-461,-10,-16,5,-508,91,-412,-7,-5,9,-297,73,-482,-8,7,5,-352,85,-464,-3,37,7,-167,79,-462,2,29,6,-71,46,-205,7,22,1,-21,43,-263,10,27,-3,-195,27,-126,15,41,-4,-112,-10,-123,14,40,-7,28,-23,-95,15,39,-9,12,-29,-35,16,39,-6,43,-26,46,14,28,-8,109,-26,133,15,20,-3,142,-14,58,15,13,-6,17,-4,192,13,15,-5,113,-12,135,9,7,-8,104,-18,225,9,9,-2,134,-13,141,4,1,-6,110,-12,187,3,1,-2,145,-28,142,2,-8,-3,82,-9,162,1,-9,-2,51,-8,84,2,-6,-2,6,-3,41,2,-3,-2,1,-5,36,up
-98,-117,44,1665,-302,2625,-53,-97,8,960,-118,1170,-40,-91,10,506,-24,660,-34,-86,9,350,9,288,-31,-84,10,95,9,681,-13,-52,5,-349,65,-563,-13,-34,9,-473,56,-532,-11,-9,6,-471,50,-657,-6,11,6,-485,55,-493,1,38,5,-358,66,-459,5,38,0,-235,71,-324,11,48,1,-168,45,-180,15,50,2,-48,3,-111,14,48,-4,-4,-27,25,14,40,-5,107,-42,39,12,33,-4,162,-43,138,11,19,-6,145,-13,95,11,10,-7,121,1,142,12,8,-5,81,0,129,10,5,-6,47,1,81,13,5,-5,48,-9,74,10,9,-4,3,-28,85,8,8,-5,85,-33,97,8,4,-3,52,-27,129,8,5,-3,95,-31,51,3,1,-5,42,-23,179,3,-1,-3,132,-12,37,2,-4,-2,37,-2,124,1,-3,0,89,-6,35,1,-7,-1,38,-9,19,up
-105,-113,34,2202,-526,2145,-58,-79,20,841,-285,1103,-45,-67,12,413,-160,742,-38,-64,10,273,-83,519,-32,-70,10,140,-34,738,-14,-69,5,-334,84,-341,-14,-51,3,-448,122,-473,-12,-25,6,-459,138,-519,-9,-9,5,-400,117,-466,-7,14,2,-414,101,-622,0,44,3,-410,108,-386,4,42,3,-189,74,-215,10,36,0,-111,37,-207,14,40,0,-89,14,-74,17,42,-1,34,-14,-77,16,37,-5,67,-49,-70,19,41,-5,98,-61,37,14,30,-5,203,-73,36,13,24,-6,180,-44,85,13,15,-6,146,-28,127,12,12,-5,160,-4,109,11,1,-6,120,5,141,12,3,-7,0,20,121,10,4,-5,-23,-2,185,9,7,-2,45,-17,132,6,3,-3,52,-25,169,2,0,-2,70,-16,126,2,-3,0,107,-19,102,1,-6,-3,100,-15,65,0,-9,-3,26,3,46,up
-92,-126,33,2416,-701,2652,-56,-111,8,1102,-340,1202,-46,-104,9,493,-148,678,-40,-104,11,276,-38,260,-38,-92,8,-97,19,605,-19,-51,6,-603,187,-670,-15,-20,10,-617,180,-605,-10,5,6,-541,147,-711,-2,38,7,-467,90,-528,7,58,7,-168,56,-472,11,54,3,-122,35,-222,14,49,0,-68,24,-45,17,49,1,43,0,-5,16,38,-6,77,-7,72,18,31,-4,65,-21,78,14,19,-11,129,-23,120,14,13,-5,98,-21,102,13,14,-7,72,-14,96,11,15,-4,94,-35,159,8,10,-4,165,-41,95,9,11,0,91,-64,179,4,6,-3,155,-55,197,3,-4,-3,145,-39,176,3,-9,-4,78,-10,97,3,-9,-4,38,-10,117,2,-9,-4,11,5,39,2,-4,-1,-16,4,12,1,-1,0,-19,-9,0,1,1,1,-2,-6,-14,0,2,1,-3,-4,4,up
-92,-126,15,2182,-536,2740,-53,-104,0,1030,-227,1313,-40,-111,6,544,-113,723,-35,-126,9,197,-74,241,-33,-69,6,-115,-9,573,-17,-54,7,-576,132,-662,-15,-22,13,-577,125,-637,-14,10,6,-511,141,-786,-3,53,4,-417,150,-516,6,33,6,-186,114,-442,13,54,0,-188,75,-192,23,48,-1,-186,54,-102,25,49,-6,-71,-7,-47,23,44,-9,-109,-47,36,19,49,-7,203,-88,55,15,30,-8,241,-85,151,9,25,-6,318,-65,88,9,12,-3,214,-50,322,8,11,0,364,-34,137,6,-8,-3,87,-9,300,5,-4,1,96,-10,170,4,-10,-5,48,-13,172,3,-6,0,39,-8,129,0,-9,-3,4,0,74,1,-5,0,15,0,52,1,-2,-1,-2,4,-9,0,-1,0,-13,-7,29,1,0,0,1,-4,-27,1,-1,0,-10,-13,4,1,0,0,-5,-8,-12,up
-91,-153,1,2050,-622,2822,-58,-114,-2,1043,-212,1219,-49,-116,0,442,-65,669,-39,-113,9,124,-4,237,-35,-90,7,-15,4,558,-21,-45,7,-638,141,-741,-12,-14,12,-601,116,-667,-8,15,9,-542,89,-666,-2,52,2,-426,69,-704,7,65,1,-269,58,-271,16,58,0,11,42,-295,17,47,-11,-157,36,-5,22,47,-8,98,-2,-21,21,33,-10,109,-14,9,17,31,-10,154,-16,-44,17,30,-8,105,-32,302,14,31,0,288,-67,142,10,17,-1,175,-48,300,7,11,0,203,-42,217,7,-3,1,140,-38,317,2,-11,-1,112,-17,240,2,-18,-4,52,2,151,2,-9,-2,9,9,51,3,-6,-3,15,5,31,3,-1,0,-13,-11,24,2,-1,0,-13,-14,18,1,1,1,7,-1,0,0,0,0,-2,-8,0,0,0,0,12,-20,7,-1,-1,-1,5,6,12,up
-8,154,43,1186,-466,1600,-17,57,16,815,-330,1239,-16,4,14,712,-251,979,-16,-17,3,625,-184,748,-17,-39,-1,471,-126,714,-21,-86,-11,183,16,225,-19,-99,-5,-76,116,-99,-20,-95,-2,-312,173,-503,-19,-74,3,-663,186,-651,-18,-30,11,-711,170,-775,-13,-4,12,-697,136,-627,-6,29,11,-585,98,-744,2,57,9,-457,65,-469,8,64,2,-180,59,-297,18,55,4,-43,37,-143,20,52,1,102,-10,-92,20,44,-4,121,-41,-13,17,37,-9,203,-44,43,20,39,2,167,-60,155,12,28,-7,230,-83,208,10,18,-4,105,-58,345,7,8,-3,213,-58,259,6,0,-3,131,-45,287,0,-16,-8,170,-29,189,1,-15,-3,37,7,188,1,-12,-5,47,6,7,2,-4,-3,-28,12,17,1,0,-3,-13,4,1,1,3,0,-7,1,-11,1,2,-1,12,-1,21,up
-78,-140,14,2489,-501,2616,-47,-109,-1,1160,-231,1194,-36,-97,-1,591,-82,718,-29,-108,4,449,-24,238,-28,-105,0,25,14,540,-16,-56,2,-736,131,-693,-14,-24,12,-668,102,-567,-14,-1,11,-699,95,-731,-7,43,11,-667,62,-577,1,68,18,-289,40,-347,4,53,0,-89,34,-271,15,46,0,-91,37,-23,21,47,-8,19,13,-56,19,33,-8,90,-13,-117,17,34,-21,-13,-27,92,18,40,-4,272,-51,-49,13,27,-9,229,-35,178,10,29,0,273,-69,104,10,18,-4,246,-52,409,8,7,5,279,-43,158,9,-7,-1,74,-33,357,4,-7,-2,59,-27,268,4,-20,-2,47,0,151,1,-11,-3,-48,21,95,1,-7,-2,-15,10,12,0,-1,-1,-32,15,0,0,1,0,-17,17,-12,0,3,0,-1,2,-32,0,3,0,5,-9,4,0,1,-2,16,0,-3,up
-88,-138,14,2175,-567,2945,-47,-106,-3,1276,-220,1283,-39,-114,-6,618,-68,739,-30,-117,4,300,-6,291,-28,-106,3,16,4,610,-14,-53,6,-714,124,-735,-16,-26,13,-700,107,-640,-11,2,13,-669,87,-650,-9,44,10,-575,67,-751,0,68,14,-336,55,-248,1,47,2,-17,61,-328,9,48,-4,-111,37,-56,16,57,1,51,-11,-34,13,38,-9,144,-20,17,14,32,-11,164,-12,24,19,27,-7,162,-21,89,19,21,-4,148,-6,72,15,15,-8,162,1,135,17,27,2,118,-45,172,9,16,-2,115,-82,259,7,12,0,128,-79,243,2,-1,-3,165,-70,218,1,-9,-1,112,-38,221,0,-19,-6,65,-1,186,0,-14,-4,38,42,25,1,-9,-3,8,31,4,1,-1,0,-23,28,-47,1,1,0,-33,0,4,1,2,1,-11,9,-18,1,2,1,6,-3,-14,down
93,-142,-27,94,-241,-1430,73,-99,-30,-301,21,-1273,79,-54,-24,-420,96,-1229,83,-29,-23,-247,123,-1180,92,-10,-28,-171,126,-1022,71,22,-11,-10,154,-496,44,23,-7,68,95,2,18,19,5,80,7,343,-7,10,15,89,-95,754,-33,-3,21,94,-152,982,-30,-18,4,-124,-161,1133,-8,-6,4,-103,-153,1052,5,-7,-6,75,-109,863,14,6,-13,133,-4,668,13,10,-11,313,23,544,2,21,-8,365,27,389,-17,15,-4,423,33,272,-36,12,3,347,45,48,-55,-8,8,215,9,-175,-66,-21,15,-64,3,-264,-65,-25,21,-127,40,-451,-53,-18,21,-247,36,-539,-42,-9,15,-258,17,-547,-28,3,14,-259,-1,-508,-19,14,10,-221,3,-460,-10,23,8,-153,-16,-295,-7,21,5,-59,-26,-131,-5,13,3,-20,-19,-53,-1,6,0,18,-13,-4,3,5,-1,37,-7,0,down
88,-140,-43,96,-43,-1144,72,-89,-27,-421,25,-1112,74,-43,-20,-464,55,-1164,81,-16,-22,-339,22,-1138,88,-2,-30,-349,40,-1020,92,30,-18,-198,42,-779,81,36,-15,234,24,-509,39,9,-9,216,14,87,12,8,8,118,10,661,-21,-5,18,281,-43,857,-45,-15,11,127,-48,968,-41,-18,5,-133,-38,1408,-9,1,0,12,-26,1103,1,-6,-14,181,19,838,18,4,-10,172,55,658,13,14,-8,263,67,519,0,21,0,356,36,300,-17,15,3,315,3,101,-34,7,7,209,-31,-36,-48,-2,8,97,-51,-196,-49,-8,12,-55,-58,-320,-48,-13,11,-165,-43,-319,-43,-13,10,-224,-34,-388,-36,-3,11,-203,-4,-385,-33,-2,11,-162,8,-366,-31,0,13,-145,11,-340,-24,4,11,-118,-13,-291,-15,11,8,-62,5,-250,-10,3,4,-35,5,-232,-1,7,0,-64,0,-132,down
113,-105,-51,-193,294,-1350,79,-46,-41,-256,279,-1141,78,-15,-20,-244,199,-952,69,-6,-23,-263,150,-810,72,0,-26,-263,125,-728,58,25,-14,-160,49,-428,50,21,-13,-149,-45,-62,30,12,-8,0,-60,167,15,3,0,172,-78,482,-5,-4,11,267,-120,548,-13,-14,9,226,-156,803,-13,-15,8,263,-141,802,-6,-14,-2,151,-150,803,0,-4,-6,60,-116,772,6,4,-12,102,-48,661,1,12,-13,158,39,483,-6,17,-6,223,95,383,-18,14,-2,286,130,219,-31,8,6,240,127,22,-42,-2,13,143,96,-149,-47,-11,17,29,40,-230,-48,-20,19,-66,-3,-383,-42,-16,18,-201,-37,-437,-34,-11,16,-206,-55,-444,-26,-2,11,-216,-59,-446,-19,10,8,-216,-42,-389,-12,19,7,-149,-30,-239,-10,17,6,-68,-13,-159,-4,14,3,-29,-9,-98,-2,11,3,0,1,3,down
90,-133,-37,121,-42,-1290,69,-79,-32,-444,34,-1042,66,-42,-17,-369,16,-1081,70,-11,-26,-513,-16,-886,62,8,-22,-306,-117,-843,57,31,-23,-409,-64,-345,47,38,-16,8,-16,-444,36,28,-10,261,-14,19,10,5,-4,352,13,324,4,-10,7,269,121,794,-10,-12,14,395,61,737,-9,-20,9,174,4,753,-8,-16,-3,-2,23,1084,4,-6,0,147,24,823,2,-5,-10,137,20,629,1,5,-7,177,39,440,-7,15,-3,195,41,290,-19,15,5,245,23,149,-34,3,9,153,5,31,-42,-2,13,111,0,-121,-48,-12,16,-12,-13,-204,-47,-19,16,-102,-45,-364,-40,-17,14,-212,-38,-373,-32,-7,12,-207,-26,-391,-24,-2,11,-206,-21,-430,-18,7,7,-183,-16,-329,-11,14,7,-110,-3,-259,-8,13,6,-87,-13,-165,-5,11,4,-45,-8,-83,-3,8,2,-4,6,-52,down
91,-131,-43,-222,52,-1585,78,-63,-27,-359,104,-1258,78,-21,-29,-329,66,-1045,79,-8,-26,-403,69,-842,70,-1,-26,-204,81,-880,66,23,-16,-188,65,-427,52,25,-13,-83,-83,-91,30,8,-9,-100,-103,358,6,3,0,207,-51,312,-8,-5,4,206,-66,548,-22,-6,4,181,-78,704,-18,-7,4,239,31,837,-8,-6,3,342,59,565,2,-5,-1,198,-19,582,11,4,-3,135,-37,699,10,8,-5,177,-21,504,1,16,-3,139,22,459,-10,18,0,226,7,349,-26,9,5,145,22,142,-40,-1,9,151,22,3,-46,-10,14,77,7,-189,-48,-20,13,40,-29,-363,-45,-23,16,-229,-13,-360,-36,-11,13,-192,-13,-492,-27,-8,12,-260,1,-409,-20,5,9,-237,19,-430,-14,11,10,-232,8,-226,-9,18,7,-90,-15,-197,-8,12,5,-59,-11,-120,-4,14,3,-34,-15,-44,down
78,-131,-30,66,-23,-1470,67,-67,-25,-399,3,-1051,65,-28,-21,-387,64,-967,66,-14,-23,-260,56,-865,68,-8,-26,-319,74,-912,64,22,-25,-214,118,-492,61,24,-20,65,160,-367,40,10,-14,140,39,29,21,12,2,84,12,471,0,6,11,171,-54,596,-13,0,15,181,-116,807,-21,-8,8,119,-174,1049,-10,-2,1,142,-89,929,0,-6,-7,311,-89,852,3,-3,-12,297,-49,588,1,5,-7,238,-22,455,-8,10,0,245,-22,335,-19,5,5,175,-25,102,-36,-2,9,-11,3,44,-43,-5,14,35,22,-190,-46,-15,12,-90,12,-323,-44,-13,12,-212,28,-367,-39,-9,11,-197,46,-405,-32,0,11,-163,38,-467,-23,7,9,-200,27,-370,-16,12,9,-133,22,-282,-11,12,6,-69,17,-223,-5,14,8,-16,0,-124,0,9,0,5,-6,-22,0,4,0,11,-28,-33,down
88,-125,-35,-138,254,-1494,69,-68,-25,-338,186,-1177,67,-26,-23,-395,116,-1014,68,-10,-20,-410,74,-830,63,-3,-25,-350,40,-825,61,26,-19,-269,-4,-426,52,27,-15,-3,-15,-234,32,14,-13,77,-21,174,7,5,-10,205,-14,467,-7,4,6,314,-8,648,-20,-4,7,325,-38,692,-21,-7,2,172,-65,855,-9,-6,1,244,-53,886,5,-5,0,232,-42,639,6,-11,-8,153,-13,465,2,0,-6,150,13,345,-5,7,-3,148,31,211,-14,11,1,141,43,178,-28,9,6,174,35,9,-36,3,9,94,24,-137,-39,-3,12,-6,20,-104,-38,-8,17,-28,20,-151,-39,-16,17,-117,-3,-315,-33,-15,16,-219,0,-322,-24,-5,14,-193,-6,-356,-19,1,12,-146,-15,-317,-18,5,10,-147,-35,-276,-14,12,7,-107,-35,-220,-9,13,6,-67,-33,-118,-5,12,3,0,-26,-93,down
86,-126,-40,-497,-50,-1480,75,-51,-27,-591,32,-1070,69,-19,-22,-364,-33,-897,65,-6,-29,-409,-23,-708,62,-5,-21,-301,0,-808,57,27,-23,-110,0,-410,47,14,-14,47,11,-263,36,6,-18,130,71,60,22,1,-1,279,110,172,1,-1,-3,263,63,388,-12,-9,15,192,35,692,-13,-5,4,176,-44,680,-11,-8,8,80,-87,757,-5,-9,0,92,-123,791,5,-4,-4,126,-78,596,8,-1,-12,182,-26,487,3,6,-7,213,24,384,-5,11,-3,192,28,287,-18,8,3,171,17,177,-29,8,9,95,8,11,-35,5,12,21,-7,-75,-39,4,14,-50,-8,-107,-39,-3,16,32,-9,-220,-37,-8,14,-122,1,-255,-32,-13,13,-85,6,-357,-31,-11,13,-183,24,-281,-25,-7,12,-145,22,-386,-22,-1,12,-217,19,-211,-14,11,11,-112,9,-287,-8,15,9,-111,-5,-138,down
92,-119,-47,-279,-103,-1331,57,-61,-30,-333,-17,-1035,64,-22,-23,-352,-8,-914,58,-9,-29,-289,-6,-810,63,-8,-25,-299,24,-837,57,21,-24,-159,100,-564,64,21,-23,-12,108,-420,49,12,-12,184,101,-150,28,-6,-4,92,37,309,9,1,7,63,-9,486,-6,-4,18,178,-71,727,-19,-9,11,233,-106,757,-18,-17,0,74,-101,1021,-2,-1,0,242,-21,874,3,-7,-14,294,-18,660,7,1,-12,166,-28,530,4,9,-5,63,-19,584,-1,21,0,180,-3,293,-21,12,5,195,-22,233,-37,8,11,185,1,-48,-45,-2,10,66,32,-120,-48,-12,13,3,33,-339,-48,-19,11,-137,31,-463,-36,-12,12,-269,44,-484,-25,-3,9,-253,41,-403,-23,5,11,-197,6,-409,-17,16,10,-167,11,-291,-14,19,13,-92,-13,-208,-11,15,9,-15,-34,-104,-7,9,9,8,-41,-84,down
84,-132,-38,-2,6,-1522,74,-57,-46,-264,146,-1168,80,-38,-19,-277,116,-1013,77,-16,-33,-346,91,-838,77,-12,-24,-354,78,-880,72,15,-23,-185,86,-525,58,9,-10,-19,5,-330,35,6,-12,42,-49,109,8,2,4,100,-30,405,-12,0,9,307,-37,509,-27,-5,15,178,-59,791,-25,-8,9,156,-54,946,-15,-7,1,161,-26,930,2,-11,-4,199,-37,820,14,0,-11,109,-43,805,16,12,-11,129,-43,658,9,21,-5,200,-41,461,-9,21,0,284,-25,283,-27,13,6,241,-24,89,-46,0,10,156,0,-133,-54,-12,12,66,20,-340,-57,-19,12,-123,35,-548,-49,-14,12,-258,54,-492,-39,-4,12,-251,52,-475,-27,7,10,-203,28,-463,-21,12,13,-197,18,-335,-12,18,10,-120,8,-257,-8,17,10,-74,-21,-132,-4,12,6,-6,-22,-79,-2,6,2,-12,-18,-19,down
84,-129,-54,-375,57,-1698,82,-60,-30,-438,47,-1236,70,-41,-34,-411,117,-1061,76,-22,-31,-414,100,-965,82,-14,-28,-333,86,-1072,83,16,-16,0,78,-614,54,11,-14,264,99,-238,33,9,0,269,74,250,5,3,10,248,11,606,-23,4,15,289,-58,691,-40,-8,11,46,-118,1019,-23,-8,5,-124,-178,1195,-4,-1,-1,-48,-220,995,11,3,-8,229,-185,730,15,-1,-9,216,-155,565,9,11,-7,186,-71,405,-6,13,0,226,-8,327,-22,8,1,261,49,-37,-42,-4,5,44,87,-153,-45,0,5,-11,139,-278,-46,-4,11,-51,102,-319,-42,-2,10,-99,64,-365,-39,-1,13,-170,27,-327,-32,5,16,-139,17,-292,-31,2,18,-119,-1,-269,-26,2,14,-104,4,-214,-20,3,13,-89,-4,-213,-14,6,8,-55,-10,-156,-6,8,1,-45,-17,-147,-1,7,-1,-16,-14,-43,down
114,-102,-43,-845,267,-2099,83,-49,-28,-533,126,-1440,77,-22,-33,-584,51,-1040,74,-3,-24,-380,5,-837,66,-2,-24,-246,-38,-956,55,15,-15,-16,-43,-375,45,12,-11,212,20,-44,24,-2,-6,354,81,164,10,-15,1,279,80,374,0,-11,11,144,80,496,-13,-10,9,109,-21,573,-11,-11,8,-41,-98,760,-2,-4,6,-57,-159,754,0,0,-4,-12,-120,664,3,1,-11,85,-59,614,4,6,-9,153,-13,521,2,15,-6,204,-15,407,-9,17,-3,225,1,289,-15,16,4,225,10,164,-29,6,6,195,14,-22,-37,0,10,93,30,-154,-48,-9,9,-41,60,-199,-43,-9,15,-74,64,-321,-43,-11,12,-143,47,-374,-31,-3,14,-158,22,-376,-26,0,11,-177,8,-371,-15,9,11,-147,-16,-324,-11,11,8,-131,-22,-217,-8,13,7,-67,-25,-164,-6,8,3,-50,-16,-96,down
84,-135,-43,-424,93,-1344,67,-68,-21,-355,60,-1141,71,-22,-32,-409,27,-960,72,-2,-22,-278,30,-786,57,0,-21,-204,44,-729,55,28,-18,-176,69,-412,43,25,-17,34,121,-214,28,10,-5,169,108,22,8,-2,-1,133,56,274,5,2,8,124,-2,550,-10,-5,12,293,-118,595,-8,-8,6,111,-200,699,-6,-9,0,115,-184,916,2,-8,-7,161,-135,747,2,-14,-15,135,-88,676,2,-4,-12,48,9,532,-3,4,-6,164,72,310,-11,9,0,140,92,155,-24,9,4,142,86,47,-32,8,10,148,89,-116,-38,3,11,124,63,-241,-39,1,14,-18,18,-198,-37,-3,14,-12,-8,-277,-33,-5,15,-102,-15,-273,-27,-4,12,-112,-27,-297,-21,-4,13,-127,-27,-230,-18,-2,11,-110,-22,-282,-15,3,10,-160,-14,-188,-11,8,9,-107,-17,-156,-6,8,6,-75,-14,-134,down
88,-126,-53,-355,-98,-1350,76,-52,-44,-567,-34,-938,60,-28,-24,-339,-53,-854,54,-10,-26,-350,7,-754,56,1,-18,-273,-11,-838,46,23,-12,-194,0,-381,41,17,-11,-22,-45,-310,39,15,-12,-12,17,-105,32,10,4,312,8,22,6,-10,-4,276,29,380,-2,-6,11,224,16,718,-9,-8,11,283,50,795,-11,-15,3,261,-2,735,-9,-18,-7,38,-19,950,5,-3,-3,91,-25,849,5,0,-13,155,3,553,-1,6,-8,97,20,445,-8,16,-1,141,35,248,-19,15,3,170,21,123,-33,6,12,126,22,-21,-41,0,14,62,12,-165,-42,-4,17,2,-16,-243,-43,-8,15,-97,-47,-316,-39,-9,13,-207,-41,-339,-30,-3,8,-176,-20,-353,-24,-2,7,-145,11,-344,-20,2,7,-119,43,-283,-15,4,9,-98,48,-225,-10,7,8,-46,22,-199,-7,8,5,-53,-3,-139,down
109,-117,-56,-425,207,-1676,79,-50,-33,-496,248,-1213,77,-26,-33,-292,197,-1090,72,-15,-27,-404,172,-896,73,4,-27,-283,137,-933,58,28,-17,-92,112,-372,48,19,-14,58,48,-203,28,15,0,69,-21,273,11,7,8,322,-45,489,-8,-15,8,246,-110,637,-14,-18,11,127,-169,790,-14,-16,6,139,-195,880,-6,-15,-2,109,-172,682,0,-8,-10,-5,-195,657,7,4,-5,148,-137,484,0,6,-6,244,-83,285,-6,9,-3,148,-23,245,-13,15,1,174,32,176,-21,12,4,257,61,0,-32,5,8,91,72,-53,-33,2,13,-4,72,-66,-37,-1,14,1,47,-134,-37,-10,15,-86,31,-238,-34,-8,14,-182,43,-240,-30,-7,13,-163,46,-247,-26,-2,12,-156,32,-294,-20,1,13,-133,36,-287,-14,6,9,-92,25,-255,-9,7,8,-76,7,-157,-7,9,4,-49,-8,-139,down
77,-124,-61,-279,90,-1436,67,-55,-36,-473,135,-1123,65,-20,-30,-274,128,-970,65,-4,-23,-345,137,-774,58,0,-25,-237,144,-779,57,26,-16,-206,135,-378,47,23,-13,26,95,-207,31,7,-9,76,63,105,16,-2,-4,245,0,248,6,-10,0,207,-58,453,-11,-13,9,300,-115,601,-12,-15,5,129,-184,623,-5,-8,2,36,-214,725,-2,-4,-4,-16,-208,811,2,3,-4,37,-176,617,2,5,-12,28,-97,575,-3,7,-7,186,21,354,-10,10,-5,280,81,260,-18,9,0,268,98,52,-26,7,4,227,100,-43,-30,5,9,145,69,-150,-35,2,12,14,32,-222,-38,-5,14,-101,7,-169,-36,-4,18,-100,23,-227,-33,-7,17,-132,3,-245,-30,-5,16,-133,0,-258,-22,-2,11,-131,-8,-234,-18,2,11,-89,-12,-226,-15,0,7,-80,-12,-201,-10,1,6,-92,-8,-180,down
127,-90,-43,-269,4,-1664,80,-54,-43,-343,81,-1288,79,-18,-36,-549,125,-1044,78,6,-27,-326,100,-905,73,10,-22,-354,86,-842,54,27,-14,-200,35,-380,48,26,-11,-123,-24,-39,28,13,0,209,-41,61,7,-7,-1,272,-41,420,-8,-15,2,397,-47,535,-16,-18,2,201,-41,722,-13,-11,9,272,-34,721,-6,-12,-2,120,-70,783,2,-2,-1,21,-70,758,7,1,-4,49,-69,711,4,7,-5,165,-34,471,-1,11,-5,155,-15,358,-13,15,0,193,22,216,-21,10,4,181,30,9,-32,5,7,96,28,-42,-36,1,12,45,33,-185,-41,-5,11,-39,39,-184,-40,-10,14,-70,5,-265,-42,-15,11,-131,8,-284,-35,-12,12,-148,32,-365,-28,-7,12,-163,36,-349,-20,1,12,-145,16,-361,-13,10,7,-161,9,-272,-6,16,6,-101,-11,-216,-3,16,3,-48,-27,-134,down
128,66,-75,-632,-58,-1350,62,43,-27,-568,-61,-363,33,29,-21,-8,-16,-253,32,9,-15,-69,-13,-100,25,8,-14,-43,2,-471,7,-20,-3,83,15,282,18,-39,-11,194,63,-196,26,-66,-12,-15,89,-314,42,-48,-19,-105,147,-611,70,-23,-14,-35,155,-682,64,0,-4,210,105,-477,31,7,3,-122,46,-15,26,44,20,-45,-66,463,-3,29,16,187,-173,636,-29,-5,7,72,-218,820,-28,-10,-1,-147,-173,1478,0,1,-6,194,-156,898,2,-1,-18,208,-102,643,5,9,-4,204,-58,507,-7,18,1,257,-34,270,-17,12,8,197,-28,187,-35,4,10,150,-7,-89,-44,-3,10,22,44,-270,-45,-7,10,-98,66,-343,-41,-7,9,-166,76,-347,-37,-5,9,-153,80,-362,-28,-2,7,-138,78,-378,-22,2,10,-156,58,-308,-20,6,10,-115,37,-232,-16,6,12,-79,16,-179,down
132,-63,-68,-739,352,-1954,83,-34,-26,-258,225,-1302,78,-13,-38,-408,199,-983,74,-10,-20,-337,144,-861,67,-8,-28,-249,121,-1058,60,6,-12,-126,48,-478,58,13,-15,50,17,-195,26,-7,-5,143,-45,148,10,4,-1,182,-57,410,-4,-5,10,229,-95,725,-23,-8,6,293,-128,723,-26,-20,1,79,-133,1042,-4,-4,2,132,-112,913,1,-11,-9,179,-105,673,9,1,-8,125,-101,546,5,10,-4,135,-75,388,-3,17,0,212,-76,257,-14,19,5,162,-44,138,-25,15,9,176,-29,26,-36,8,10,102,0,-98,-39,-3,11,-2,27,-211,-41,-7,11,-119,52,-187,-38,-10,10,-145,49,-332,-34,-8,9,-241,75,-283,-29,-3,10,-187,85,-320,-26,3,11,-171,79,-297,-20,9,12,-99,60,-269,-17,7,11,-58,41,-214,-10,8,8,-29,-3,-179,-7,9,5,-29,-13,-90,down
137,-60,-54,-731,566,-2079,87,-13,-33,-431,280,-1185,74,-11,-27,-280,217,-911,71,-5,-29,-196,176,-720,65,-10,-26,-179,130,-925,44,-2,-18,5,30,-175,44,-12,-11,110,12,-138,30,-15,-13,57,-34,107,12,-16,-3,31,-50,390,2,-11,3,126,-33,370,-8,-8,9,182,-70,427,-14,-7,5,108,-92,622,-9,-2,8,158,-115,614,-2,-6,3,154,-160,518,1,-1,-2,8,-198,483,7,3,-6,-47,-189,533,6,9,-8,-52,-145,460,0,13,-8,19,-70,353,-6,15,-3,89,8,267,-14,18,0,202,65,101,-24,13,1,167,92,-19,-30,13,6,158,95,-117,-33,8,8,99,86,-181,-35,9,10,29,65,-191,-34,1,10,-5,51,-190,-33,0,14,-46,44,-166,-31,-3,11,-44,30,-195,-27,-4,14,-115,18,-161,-25,-4,13,-66,10,-238,-21,-5,12,-148,-5,-184,down
128,-69,-74,-589,275,-2152,84,-30,-31,-354,219,-1463,81,2,-30,-278,155,-1165,76,4,-20,-360,110,-908,70,10,-22,-169,98,-1022,51,17,-10,-84,37,-257,44,12,-12,-15,-12,-76,27,-6,-4,86,-32,214,9,-14,-6,189,-44,282,-4,-25,-1,44,-59,624,-14,-17,3,123,-46,573,-15,-15,5,181,-43,521,-14,-11,1,132,-71,503,-6,-8,0,139,-81,489,-1,-4,0,170,-90,356,4,-2,-1,172,-100,232,4,1,-6,51,-87,217,5,5,-4,29,-54,280,2,13,-3,5,-35,287,0,21,0,71,-21,235,-6,19,-1,16,-4,243,-13,21,5,97,23,158,-21,16,7,123,45,116,-28,11,10,138,52,-40,-35,4,10,61,58,-53,-36,2,14,49,32,-170,-36,-2,11,-58,8,-159,-36,-3,12,-92,-2,-207,-34,-9,9,-102,5,-231,-28,-8,9,-151,18,-247,down
125,-95,-42,-718,171,-2884,93,-8,-30,-614,81,-1698,81,0,-23,-534,105,-1253,76,12,-23,-253,87,-1010,72,7,-20,-282,80,-1244,56,23,-9,-33,-3,-167,37,0,-10,-31,-26,125,22,-4,-6,34,-50,275,4,-14,3,110,-32,459,-10,-15,4,314,-42,366,-19,-15,0,199,-6,549,-14,-10,5,313,13,581,-9,-10,2,331,-10,415,-2,-12,-2,161,-51,381,3,-9,-3,38,-67,400,5,-3,-1,58,-71,378,4,0,-4,5,-76,342,2,8,-1,-6,-71,291,0,15,0,-5,-52,228,-6,20,1,42,-33,126,-13,18,3,34,-7,162,-18,19,5,103,9,57,-24,13,7,113,25,8,-30,8,6,73,21,-99,-31,4,11,12,20,-90,-32,2,9,-26,9,-118,-31,0,12,-74,8,-141,-29,-3,10,-96,23,-170,-26,-3,11,-97,42,-206,-24,-4,9,-99,43,-191,down
151,-29,-54,-1088,378,-2890,100,-2,-32,-717,287,-1643,86,12,-17,-331,181,-1204,74,3,-24,-293,128,-893,69,-1,-22,-212,113,-1228,42,1,-13,130,37,-150,31,-10,-8,184,-15,43,13,-21,-11,45,-23,423,4,-18,-2,82,-20,529,-9,-13,5,163,-41,475,-14,-11,9,113,-75,621,-13,-7,1,97,-113,615,-4,-6,2,129,-152,503,-2,-3,0,110,-168,300,4,-3,-4,38,-167,273,3,0,-9,-39,-143,295,4,8,-1,13,-83,250,-2,11,-4,57,-38,232,-4,14,0,79,-1,173,-11,16,2,113,11,124,-15,17,6,65,30,95,-23,17,9,116,27,5,-25,14,11,80,36,-22,-32,11,13,58,33,-88,-33,6,13,-12,29,-50,-33,0,12,68,31,-206,-33,-9,7,-96,50,-178,-29,-8,9,-83,63,-222,-23,-8,8,-110,62,-226,-20,-4,8,-120,57,-299,down
142,-47,-60,-1080,81,-2374,91,4,-32,-592,116,-1353,77,2,-29,-405,138,-1011,73,4,-29,-340,129,-771,62,0,-22,-246,90,-1021,42,7,-14,-3,15,-134,34,-10,-15,-61,-57,23,24,-6,-5,13,-70,223,6,-10,0,178,-88,304,-3,-13,0,209,-76,277,-14,-13,4,183,-30,602,-11,-4,8,333,1,509,-9,-13,0,342,-24,398,-2,-13,-2,193,-32,488,4,-3,-3,155,-30,519,7,1,-4,143,-28,405,4,4,-7,77,-36,339,1,12,-3,-9,-44,372,-3,17,0,31,-35,213,-11,13,2,12,-28,148,-18,12,5,24,-10,25,-22,9,9,70,12,-45,-28,6,8,23,25,-156,-28,7,11,-11,19,-130,-30,5,13,-44,4,-146,-29,3,14,-64,2,-211,-32,-1,11,-139,7,-163,-28,-2,12,-100,15,-231,-26,-1,8,-115,27,-192,-19,2,8,-83,31,-212,down
87,-114,-61,-453,450,-1944,73,-47,-24,-430,234,-1292,63,-25,-25,-440,187,-1020,68,-11,-21,-400,167,-869,65,-7,-20,-176,142,-1073,63,12,-11,-38,43,-462,51,7,-12,111,-2,-161,29,-4,-14,13,-11,282,9,-9,-5,119,-43,400,-8,-16,-2,23,-49,591,-27,-9,6,92,-64,655,-26,-11,4,81,-69,823,-8,-4,10,263,-135,554,-2,-6,0,179,-156,474,5,0,0,192,-172,365,11,1,-8,54,-150,322,9,4,-8,32,-116,396,4,10,-7,-6,-48,382,-3,15,-3,104,1,239,-11,14,-1,44,40,144,-21,14,5,104,66,26,-26,14,6,108,90,-7,-32,12,8,128,77,-155,-36,9,11,62,51,-171,-37,7,13,24,33,-196,-35,3,11,-42,10,-172,-35,0,14,-86,1,-185,-33,-3,12,-85,11,-187,-27,-5,11,-99,21,-193,-21,-3,10,-97,22,-200,down
149,-8,-58,-964,230,-2450,93,-6,-21,-461,160,-1498,84,0,-35,-517,169,-1126,81,-3,-23,-415,120,-951,75,2,-25,-202,62,-1190,57,-4,-9,-49,-50,-246,42,-5,-23,-166,-99,111,24,-11,-3,8,-98,286,1,-9,-3,268,-76,324,-14,-19,2,132,-39,532,-27,-7,3,229,16,651,-17,-7,12,431,30,530,-9,-7,3,387,-25,396,2,-8,0,183,-47,486,10,-3,-2,197,-67,423,13,-5,-9,123,-64,373,9,1,-8,22,-57,420,4,7,-3,-24,-68,362,-3,17,-3,-105,-57,285,-9,23,3,-35,-31,209,-22,24,6,-16,-8,83,-29,23,11,43,10,59,-36,20,9,83,63,-68,-39,10,14,147,60,-124,-41,0,10,45,43,-154,-37,-13,12,35,31,-262,-33,-16,8,-101,48,-256,-27,-15,9,-127,28,-293,-23,-9,10,-164,35,-282,-21,-3,12,-163,34,-316,down
129,-76,-58,-1126,74,-2019,94,-20,-30,-668,10,-1361,76,5,-34,-559,-14,-1009,69,11,-26,-266,-6,-859,63,5,-30,-276,26,-953,47,22,-13,16,22,-365,40,7,-16,164,16,-124,37,-8,-3,255,18,-58,18,-20,-4,153,30,312,6,-17,8,263,28,518,-7,-20,6,234,-5,563,-13,-15,9,114,-37,667,-16,-13,3,107,-59,747,-7,-9,1,52,-100,669,1,-4,-3,65,-126,502,5,-7,-11,41,-95,375,3,0,-8,87,-35,201,1,5,-4,43,-23,259,-1,16,0,64,-11,213,-9,18,2,89,-10,183,-15,24,8,71,2,34,-22,21,9,97,2,69,-29,16,9,93,34,49,-36,6,7,124,62,-152,-37,0,11,-35,47,-158,-35,0,12,-60,16,-184,-31,-2,12,-98,7,-158,-27,-2,11,-87,2,-230,-24,0,13,-125,-12,-143,-22,-1,11,-47,0,-132,down
98,-116,-41,-1021,289,-2856,80,-27,-24,-853,190,-1805,81,-8,-31,-585,161,-1442,81,-9,-34,-429,165,-1276,92,0,-33,-349,145,-1493,83,22,-19,126,82,-467,51,-5,-22,195,48,79,30,-9,-7,80,67,442,5,-8,3,197,30,695,-28,-15,15,303,-45,513,-42,-15,9,-85,-107,973,-19,0,12,93,-130,892,-8,-7,4,269,-191,505,0,-7,0,114,-214,288,1,-11,-13,-4,-196,467,14,-4,-7,133,-118,342,6,1,-9,49,-48,366,0,10,-5,28,-33,285,-4,15,-2,141,7,155,-4,25,9,160,70,134,-22,20,4,205,53,24,-28,14,12,94,28,-46,-34,10,12,35,41,-121,-36,12,16,-60,22,-173,-35,3,13,-79,3,-225,-34,6,14,-153,17,-193,-29,3,9,-93,13,-163,-26,4,9,-52,14,-171,-25,-1,7,-56,27,-133,-21,0,8,-39,34,-148,down
132,-70,-52,-987,328,-3082,103,-19,-37,-877,227,-1724,84,3,-31,-372,196,-1296,78,-1,-30,-413,193,-932,71,5,-21,-236,129,-1262,48,9,-15,-24,36,-34,30,-1,-10,140,-21,23,16,-13,-5,-10,-54,391,1,-13,0,134,-94,442,-11,-18,1,129,-71,430,-16,-13,4,229,-69,469,-12,-7,4,154,-69,553,-5,-8,2,190,-98,484,-1,-5,1,171,-105,365,3,-8,-5,105,-99,326,6,1,-4,12,-74,418,4,5,-7,96,-49,346,2,14,-4,61,-16,310,-1,20,0,199,-21,268,-10,17,1,13,0,205,-18,22,7,151,14,68,-26,9,9,41,41,87,-32,10,12,112,50,-204,-37,-1,9,-73,66,-71,-32,5,13,36,34,-297,-31,-5,9,-124,26,-149,-28,0,13,-57,12,-272,-26,-5,8,-127,13,-219,-21,1,12,-127,23,-189,-18,-1,10,-77,24,-216,down
136,-65,-64,-897,400,-2524,96,-22,-43,-488,206,-1459,85,-7,-29,-608,107,-989,75,-1,-30,-328,109,-807,68,-1,-23,-208,111,-1045,43,7,-12,28,21,-127,32,-3,-8,3,-18,195,15,-11,-11,78,-27,245,3,-15,-1,64,-21,423,-8,-13,1,110,-49,425,-12,-10,6,125,-75,473,-12,-3,7,163,-78,517,-8,-3,8,305,-91,318,-3,-4,1,217,-128,352,1,-6,-4,126,-137,295,4,-2,-8,70,-99,330,4,-4,-12,53,-51,302,2,3,-8,-20,11,327,0,9,-3,27,30,256,-7,15,0,26,50,184,-12,17,2,46,51,139,-20,23,8,119,32,49,-26,16,9,128,21,-48,-31,17,11,86,9,-109,-30,8,9,115,6,-140,-31,6,12,-31,13,-155,-27,0,11,-43,26,-148,-22,0,10,-75,1,-159,-19,-5,8,-63,-5,-192,-19,-2,10,-135,-2,-80,down
126,-85,-40,-1489,339,-2918,93,-20,-21,-1003,71,-1709,82,-4,-34,-652,45,-1312,80,3,-28,-397,46,-1038,70,-1,-23,-240,35,-1292,44,8,-14,57,-72,-99,30,-4,-14,72,-79,134,10,-9,-3,-62,-84,391,-7,-8,8,125,-41,456,-18,-13,6,191,9,593,-17,-7,8,208,61,699,-13,-5,6,346,94,627,-3,-6,7,498,100,335,1,-12,-4,308,30,405,7,-4,-3,165,-23,365,7,-1,-7,102,-37,260,5,7,-3,71,-39,196,-1,11,-3,45,-45,198,-5,15,1,-36,-36,211,-13,19,5,9,-39,164,-19,19,8,33,-42,36,-27,12,9,113,-32,36,-29,8,11,11,-22,-28,-33,2,12,30,-27,-139,-33,-1,13,-105,-13,-125,-32,-2,14,-74,7,-260,-31,-3,12,-202,32,-161,-27,0,12,-123,31,-258,-24,1,9,-136,60,-193,-19,2,8,-73,54,-208,down
127,-82,-43,-890,88,-2303,87,-22,-33,-481,48,-1440,81,-4,-23,-474,73,-1040,70,10,-22,-251,90,-856,65,0,-22,-236,85,-1007,46,13,-13,32,38,-264,40,0,-12,58,32,-6,23,-9,-4,228,14,56,12,-25,-6,103,-22,379,0,-15,4,160,-46,417,-9,-14,2,70,-38,538,-13,-9,7,78,-76,572,-8,-7,0,25,-109,588,-4,-3,4,108,-104,490,1,-4,-5,129,-104,424,3,-3,-3,179,-80,342,4,4,-5,132,-34,266,1,7,-2,112,-18,251,-3,13,-2,45,-16,249,-8,17,3,103,1,101,-11,19,2,43,4,154,-20,17,7,56,26,41,-25,14,9,108,36,59,-32,10,11,83,43,-110,-34,3,11,10,30,-64,-37,0,12,-39,24,-113,-33,-7,11,-44,9,-202,-31,-7,9,-134,18,-166,-25,-8,10,-98,14,-267,-22,-5,9,-154,28,-200,down
130,-81,-52,-1092,188,-2701,93,-35,-46,-870,132,-1679,89,-4,-39,-799,67,-1279,88,14,-33,-459,30,-1024,74,10,-31,-217,12,-1234,54,20,-19,73,-7,-220,38,14,-9,206,-28,99,16,-6,-4,257,-13,396,-4,-15,4,259,8,471,-12,-22,8,179,19,544,-23,-18,6,78,-32,646,-17,-13,6,161,-44,618,-9,-7,1,230,-61,402,-2,-11,-3,157,-64,317,1,-2,-4,129,-58,416,8,1,-4,160,-32,319,6,4,-5,80,-19,322,2,10,-1,108,-5,315,0,15,2,136,-5,207,-8,14,3,100,-28,176,-15,17,7,40,-13,106,-24,15,9,123,-25,32,-28,13,13,-2,-18,-37,-36,9,11,-43,-18,-77,-34,7,13,-92,3,-39,-34,5,12,6,14,-166,-32,-4,11,-109,27,-75,-33,-7,12,-11,28,-175,-29,-14,11,-55,44,-162,-27,-13,13,-51,39,-226,down
135,-55,-62,-1309,316,-2951,94,-2,-32,-860,218,-1787,90,18,-32,-613,171,-1326,82,17,-32,-572,155,-983,78,15,-30,-333,142,-1298,58,24,-20,-16,107,-239,47,9,-16,209,84,-73,23,-9,-11,290,28,276,8,-19,0,276,-28,316,-7,-18,11,149,-110,577,-17,-15,12,116,-179,637,-17,-14,9,50,-231,584,-9,-11,6,0,-210,663,-3,-5,0,124,-192,576,2,-5,-10,174,-109,440,5,-4,-9,188,-57,366,5,2,-8,165,0,361,0,8,-4,118,28,280,-3,13,0,166,46,176,-11,15,4,89,26,166,-16,18,6,76,16,43,-25,15,9,32,25,45,-30,15,12,60,29,-83,-34,8,14,2,16,-23,-37,4,16,5,14,-120,-39,-7,17,-39,7,-152,-35,-9,12,-109,6,-212,-30,-9,13,-104,10,-262,-27,-8,7,-157,37,-250,-21,-4,7,-137,41,-285,down
127,-39,-91,-1012,120,-2591,100,-13,-37,-553,172,-1617,87,9,-46,-426,169,-1144,77,4,-22,-381,137,-884,73,10,-23,-150,90,-1134,53,10,-6,-70,20,-232,40,7,-12,-7,-47,33,21,-12,0,126,-48,236,7,-12,-4,307,-47,285,-8,-22,2,167,-27,627,-15,-16,4,246,-32,581,-16,-16,8,257,-43,611,-8,-11,5,158,-112,590,-2,-9,-2,13,-129,558,3,-4,-3,3,-136,476,6,1,-5,66,-76,342,4,7,-6,44,-39,310,0,14,-2,55,-10,276,-6,19,0,111,2,229,-13,18,2,102,10,106,-20,17,3,83,15,67,-29,13,6,38,33,11,-32,8,8,46,50,-86,-34,2,12,-1,50,-146,-35,-1,11,5,43,-169,-35,-5,13,-36,39,-247,-29,-7,12,-86,22,-241,-26,-5,10,-119,19,-287,-21,-2,10,-129,20,-266,-16,1,9,-130,27,-255,down
99,-116,-53,-492,227,-1899,74,-54,-26,-426,166,-1401,81,-12,-38,-482,161,-1121,82,1,-28,-334,172,-912,72,5,-22,-98,146,-927,58,20,-16,-66,100,-302,47,19,-11,103,66,9,20,-5,0,186,12,301,1,-15,2,164,-58,474,-10,-21,3,-41,-103,695,-17,-12,8,133,-124,560,-16,-16,2,91,-155,587,-7,-8,0,110,-170,511,-3,-8,-2,113,-159,432,2,-4,-5,158,-132,258,5,-4,-7,88,-104,264,3,1,-5,40,-47,281,2,9,-1,115,-29,231,-2,12,-2,77,-10,195,-9,18,4,100,-13,120,-16,16,5,31,-21,104,-21,20,9,19,-33,28,-28,14,8,1,2,24,-32,13,13,4,27,-103,-30,7,9,-10,46,-82,-28,7,9,0,60,-99,-28,0,6,13,55,-154,-25,-2,9,-50,39,-80,-24,-6,9,-49,20,-164,-22,-7,9,-67,35,-155,down
145,-2,-60,-1373,522,-2824,93,4,-33,-558,339,-1632,87,4,-27,-450,248,-1122,75,9,-16,-204,87,-875,66,0,-25,-365,38,-1057,40,2,-11,-56,-50,-3,27,-7,-13,36,-31,203,9,-13,-7,146,-26,119,-1,-20,-9,86,45,383,-7,-12,5,309,34,331,-11,-14,5,307,-38,303,-6,-6,6,94,-138,383,-2,-2,3,75,-168,424,0,-3,-1,27,-170,457,2,-1,-4,22,-126,433,4,0,-7,50,-69,460,4,5,-4,140,-11,368,0,8,-5,95,-7,317,-3,17,1,94,24,221,-12,15,1,136,41,105,-18,15,5,73,63,30,-26,10,7,96,57,-58,-27,8,8,66,68,-147,-30,5,10,23,48,-195,-27,6,13,-14,23,-175,-26,3,12,-72,-8,-179,-23,3,13,-93,-12,-133,-22,1,11,-73,-11,-123,-20,-2,10,-50,-5,-162,-19,-5,7,-99,12,-96,down
121,-82,-53,-1112,108,-2495,83,-27,-33,-647,224,-1668,87,-3,-32,-484,259,-1250,75,2,-22,-255,216,-993,70,3,-23,-182,176,-1089,48,15,-8,62,124,-218,37,3,-5,95,5,152,15,-11,0,32,-112,364,1,-16,-1,-114,-168,551,-16,-17,7,-57,-174,648,-17,-12,6,83,-138,549,-15,-8,3,172,-116,472,-10,-5,2,262,-93,438,-2,-4,0,297,-84,363,6,-3,-5,232,-81,275,7,0,-7,139,-87,281,6,3,-6,52,-56,317,1,10,-2,100,-32,286,-4,10,-1,118,-7,226,-9,17,4,164,-4,27,-17,14,6,68,-11,88,-23,18,13,52,-2,25,-26,13,11,31,7,-54,-29,13,14,-2,32,-117,-31,4,11,-51,43,-38,-30,0,10,-64,70,-98,-29,-5,8,-43,69,-177,-27,-6,9,-111,80,-134,-24,-5,11,-70,65,-199,-21,-6,10,-110,54,-164,down
147,5,-72,-1418,62,-2580,89,17,-46,-700,18,-1411,75,17,-39,-527,65,-1009,63,14,-27,-367,53,-778,55,9,-28,-306,41,-1085,34,4,-11,27,51,-123,29,-7,-10,155,52,-95,21,-15,-3,236,-13,45,13,-19,-4,202,-61,286,3,-17,4,141,-74,436,-5,-13,4,214,-95,456,-6,-10,5,127,-111,574,-8,-8,1,62,-95,675,-3,-3,0,82,-62,661,2,0,-4,184,-55,446,7,3,-5,113,-53,403,4,11,-5,53,-35,377,0,15,0,166,-4,263,-8,13,-1,157,-2,148,-17,14,5,129,0,45,-27,7,4,128,-10,22,-33,4,10,29,12,-133,-37,2,11,-24,15,-132,-38,1,15,-81,37,-188,-37,-3,15,-59,50,-247,-33,-2,16,-178,71,-197,-27,-1,15,-96,65,-303,-21,-1,10,-145,49,-187,-16,2,11,-88,34,-259,-11,3,7,-128,23,-193,down
